"Time (s)","Acceleration x (m/s^2)","Acceleration y (m/s^2)","Acceleration z (m/s^2)","Absolute acceleration (m/s^2)"
-1.522500534E-4,-1.580563202E0,6.754254456E0,7.581584015E0,1.027611548E1
9.784750000E-3,-1.794618073E0,6.940167847E0,7.297774200E0,1.022956949E1
1.972275000E-2,-2.090253296E0,7.003486176E0,6.943460999E0,1.008115212E1
2.965975000E-2,-1.742526398E0,7.063960419E0,6.868766327E0,1.000579262E1
3.959674999E-2,-1.360371094E0,6.944359131E0,6.892117767E0,9.878057530E0
4.953475000E-2,-1.299148407E0,6.876101074E0,6.985972595E0,9.887990982E0
5.947174999E-2,-1.370250549E0,6.901847534E0,7.083869019E0,9.984702611E0
6.940874999E-2,-1.486858063E0,6.906038818E0,7.158414001E0,1.005718699E1
7.934674999E-2,-1.522034912E0,6.937024384E0,7.129224701E0,1.006303843E1
8.928374999E-2,-1.554217987E0,7.025191040E0,7.112758942E0,1.011732388E1
9.922074998E-2,-1.575174408E0,7.103029175E0,7.072193298E0,1.014643366E1
1.091587500E-1,-1.585353241E0,7.145391083E0,6.953490143E0,1.009559230E1
1.190957500E-1,-1.466051331E0,7.160809021E0,6.852450256E0,1.001911008E1
1.290327500E-1,-1.312919769E0,7.158264313E0,6.772516479E0,9.941402605E0
1.389707500E-1,-1.223106537E0,7.119345245E0,6.607409821E0,9.789735995E0
1.489077500E-1,-1.380878448E0,7.139852600E0,6.392756195E0,9.682543685E0
1.588447500E-1,-1.587149506E0,7.175777893E0,6.272855530E0,9.662274495E0
1.687827500E-1,-1.717678070E0,7.141648865E0,6.143524475E0,9.575826828E0
1.787197500E-1,-1.762584686E0,7.123536530E0,6.123915253E0,9.557918993E0
1.886567500E-1,-1.750609589E0,7.083120575E0,6.169570312E0,9.555042064E0
1.985947500E-1,-1.701661377E0,7.034322052E0,6.252348175E0,9.563952942E0
2.085317500E-1,-1.635049896E0,6.998995514E0,6.486611023E0,9.681706922E0
2.184697500E-1,-1.589394836E0,6.931336212E0,6.666985931E0,9.747733021E0
2.284067500E-1,-1.514251099E0,6.894812164E0,6.624025269E0,9.680346168E0
2.383437500E-1,-1.521136780E0,6.880442047E0,6.477180634E0,9.571217730E0
2.482817500E-1,-1.578916626E0,6.879992981E0,6.365662537E0,9.505205977E0
2.582187500E-1,-1.617835693E0,6.835984497E0,6.334527283E0,9.459086228E0
2.681557500E-1,-1.620679779E0,6.808142395E0,6.481222229E0,9.538534866E0
2.780937499E-1,-1.690584412E0,6.790179749E0,6.685247955E0,9.677662781E0
2.880307500E-1,-1.688937836E0,6.787485352E0,6.784641266E0,9.744425356E0
2.979677500E-1,-1.555864563E0,6.772217102E0,6.740632782E0,9.680897134E0
3.079057500E-1,-1.441502380E0,6.777755585E0,6.615343323E0,9.580118327E0
3.178427500E-1,-1.381177826E0,6.807094574E0,6.450236664E0,9.478910367E0
3.277797500E-1,-1.319057007E0,6.769073639E0,6.341113586E0,9.368563969E0
3.377177500E-1,-1.272952881E0,6.752757568E0,6.343957672E0,9.352322854E0
3.476547500E-1,-1.204395447E0,6.729406128E0,6.390510864E0,9.358103672E0
3.575927500E-1,-1.042132874E0,6.693181458E0,6.651867371E0,9.493790521E0
3.675297500E-1,-1.119671631E0,6.693031769E0,6.688391418E0,9.528112016E0
3.774667500E-1,-1.096020813E0,6.725514221E0,6.627917175E0,9.505950202E0
3.874047500E-1,-7.554789734E-1,6.685846710E0,6.598877563E0,9.424249562E0
3.973417500E-1,-2.091151428E-1,6.537804565E0,6.519093475E0,9.234998507E0
4.072787500E-1,3.442840576E-1,6.223458252E0,6.505172424E0,9.009285898E0
4.172167500E-1,1.326391754E0,5.662724304E0,6.822662201E0,8.965181601E0
4.271537500E-1,2.002236328E0,4.927153931E0,6.969357147E0,8.766854351E0
4.370907500E-1,9.035211182E-1,5.117258606E0,7.201524353E0,8.880576505E0
4.470287500E-1,3.013982391E0,7.001240845E0,7.021748199E0,1.036370643E1
4.569657500E-1,2.486928406E0,6.289321289E0,6.574328613E0,9.431976033E0
4.669027500E-1,1.397793274E0,5.369633789E0,6.304888916E0,8.398715218E0
4.768407500E-1,1.929936676E0,6.267616425E0,6.030359802E0,8.909147578E0
4.867777500E-1,7.430548096E-1,5.009482727E0,5.144052887E0,7.218609821E0
4.967157500E-1,-1.108145599E0,4.370611267E0,4.884193268E0,6.647222984E0
5.066527500E-1,-3.168610840E0,4.140240326E0,5.246589661E0,7.396511859E0
5.165897500E-1,-4.559817810E0,3.536994781E0,5.575306091E0,8.024107960E0
5.265277500E-1,-5.553750916E0,3.045267334E0,6.074218597E0,8.775758311E0
5.364647500E-1,-6.340814209E0,2.557282104E0,6.620732117E0,9.517337356E0
5.464017499E-1,-6.618935852E0,2.135159912E0,6.949149170E0,9.831576366E0
5.563397499E-1,-5.762716370E0,3.307372284E0,7.233408051E0,9.821904266E0
5.662767500E-1,-4.117487640E0,5.542224884E0,6.876849518E0,9.744794530E0
5.762137500E-1,-3.569626923E0,5.198689270E0,5.617518311E0,8.445419970E0
5.861517500E-1,-3.495980072E0,4.083807678E0,4.497696991E0,7.009182551E0
5.960887500E-1,-3.022814026E0,3.832630005E0,4.427193604E0,6.589878648E0
6.060257500E-1,-2.678380280E0,3.464844818E0,4.935386810E0,6.598250791E0
6.159637500E-1,-2.604733429E0,3.004252625E0,5.363346863E0,6.676500553E0
6.259007500E-1,-2.460433502E0,2.629432068E0,6.006708984E0,7.003441928E0
6.358387500E-1,-2.065704346E0,2.439028015E0,6.587351532E0,7.321829847E0
6.457757500E-1,-2.171833649E0,2.098037109E0,6.959477692E0,7.586366116E0
6.557127500E-1,-2.623743896E0,1.738185425E0,7.519762573E0,8.151818801E0
6.656507500E-1,-2.903961182E0,1.825154572E0,8.014633484E0,8.717713555E0
6.755877500E-1,-2.943179626E0,1.988764343E0,7.992180176E0,8.745995306E0
6.855247500E-1,-2.921325073E0,1.971400452E0,7.462581482E0,8.252919623E0
6.954627500E-1,-2.852917328E0,1.660796356E0,7.174131317E0,7.897185699E0
7.053997500E-1,-3.034040680E0,1.124611359E0,6.994953918E0,7.707109307E0
7.153367500E-1,-3.654799805E0,4.836442566E-1,6.852599945E0,7.781362309E0
7.252747500E-1,-4.125720520E0,7.110214233E-2,6.833888855E0,7.983023375E0
7.352120000E-1,-4.324806519E0,3.333567810E-1,6.612648926E0,7.908362914E0
7.451500000E-1,-4.686005402E0,8.470884705E-1,6.484665070E0,8.045314572E0
7.550870000E-1,-5.202281799E0,9.671388245E-1,6.555767212E0,8.424795378E0
7.650240000E-1,-5.665119324E0,9.156459045E-1,6.782096558E0,8.884189220E0
7.749620000E-1,-6.073619843E0,5.078938293E-1,7.078929291E0,9.341201959E0
7.848990000E-1,-6.660100250E0,1.480421448E-1,7.345225525E0,9.916208440E0
7.948360000E-1,-7.082072754E0,2.013313293E-1,7.494914246E0,1.031358465E1
8.047740000E-1,-7.230264587E0,2.912942505E-1,7.364685059E0,1.032473556E1
8.147110000E-1,-7.514972534E0,1.365161133E-1,7.148833923E0,1.037300705E1
8.246480000E-1,-7.967631226E0,-1.654060364E-1,7.319479065E0,1.082059519E1
8.345860000E-1,-8.098159790E0,-4.739144897E-1,7.775281219E0,1.123653794E1
8.445229999E-1,-8.059989166E0,-8.102650452E-1,9.761051788E0,1.268456096E1
8.544600000E-1,-9.487420807E0,-1.267115021E0,1.917033508E1,2.142705022E1
8.643979999E-1,-7.748486938E0,1.833686829E-1,1.124506577E1,1.365738547E1
8.743350000E-1,-6.917714539E0,-6.804849243E-1,1.044902115E1,1.254989550E1
8.842730000E-1,-6.903045044E0,-1.030906219E0,1.035980667E1,1.249161290E1
8.942100000E-1,-6.925648041E0,-9.527687073E-1,8.131390686E0,1.072342685E1
9.041470000E-1,-6.980284424E0,-1.259181519E0,8.063581696E0,1.073923920E1
9.140850000E-1,-7.218888245E0,-7.723937988E-1,7.438631287E0,1.039433380E1
9.240220000E-1,-7.409142609E0,-1.303788757E-1,6.912325745E0,1.013373771E1
9.339590000E-1,-6.956932983E0,8.442443848E-2,6.484365692E0,9.510680441E0
9.438970000E-1,-6.284980316E0,-2.677931213E-1,6.396797791E0,8.971717378E0
9.538340000E-1,-5.617518311E0,-7.222480774E-1,6.539002075E0,8.650820909E0
9.637720000E-1,-5.290598145E0,-1.526675262E0,7.276518402E0,9.125178691E0
9.737090000E-1,-5.889502716E0,-2.568359070E0,7.703730011E0,1.003145885E1
9.836460000E-1,-6.964866486E0,-3.430715790E0,8.192912750E0,1.128729353E1
9.935840000E-1,-8.587941284E0,-4.484225006E0,1.092263626E1,1.460017097E1
1.003521000E0,-9.907297668E0,-3.422482910E0,1.395787445E1,1.745537727E1
1.013458000E0,-8.690927124E0,-1.174607391E0,1.050036438E1,1.368099298E1
1.023396000E0,-7.311844940E0,-8.273295593E-1,6.820865936E0,1.003353192E1
1.033333000E0,-7.858358459E0,-1.888173523E0,7.052284698E0,1.072630954E1
1.043270000E0,-8.819509735E0,-2.327958984E0,8.492439880E0,1.246293224E1
1.053208000E0,-9.565258942E0,-2.069895630E0,9.072932739E0,1.334528962E1
1.063145000E0,-7.841743011E0,-1.819915466E0,9.423503723E0,1.239384719E1
1.073083000E0,-4.732408905E0,1.061293030E-1,8.952133942E0,1.012658183E1
1.083020000E0,-3.574267273E0,1.406774597E0,9.559570770E0,1.030241693E1
1.092957000E0,-3.592828674E0,-2.516267395E-1,1.053554123E1,1.113415299E1
1.102895000E0,-2.562371521E0,-2.184557190E0,9.111552429E0,9.713826517E0
1.112832000E0,-5.004093933E0,-5.166805573E0,7.305707703E0,1.025232661E1
1.122769000E0,-5.942342834E0,-4.050576782E0,5.367987213E0,8.974068049E0
1.132707000E0,-9.222322083E0,-3.745211792E0,6.469546509E0,1.187151498E1
1.142644000E0,-8.267607422E0,-4.324656830E0,7.233857117E0,1.180612883E1
1.152581000E0,-6.261778564E0,-2.453847198E0,6.134243774E0,9.102756920E0
1.162519000E0,-4.938530273E0,-1.184486847E0,5.284760284E0,7.329446201E0
1.172456000E0,-4.528832245E0,-9.705816650E-1,5.007087708E0,6.820797430E0
1.182394000E0,-4.340673523E0,-4.939727783E-1,4.126768341E0,6.009631659E0
1.192331000E0,-4.386328583E0,8.030799866E-1,3.104095001E0,5.433251483E0
1.202268000E0,-5.177732849E0,2.337988129E0,3.830384674E0,6.851784636E0
1.212206000E0,-5.335953827E0,2.326911163E0,4.155957642E0,7.152545192E0
1.222143000E0,-4.951852570E0,1.465153198E0,4.791236572E0,7.044392497E0
1.232080000E0,-4.675227814E0,7.159611511E-1,5.395829315E0,7.175327831E0
1.242018000E0,-4.705614624E0,1.079854431E0,5.978866882E0,7.684773502E0
1.251955000E0,-4.774471436E0,1.741179199E0,5.575006714E0,7.543737956E0
1.261893000E0,-4.376449127E0,2.410287781E0,4.732109528E0,6.881544502E0
1.271830000E0,-3.552861786E0,4.309388580E0,6.743626556E0,8.756149607E0
1.281767000E0,-3.038531342E0,5.179978180E0,7.083419952E0,9.286532447E0
1.291705000E0,-2.542911987E0,4.981640625E0,5.651946716E0,7.951581376E0
1.301642000E0,-2.633623352E0,5.492677917E0,4.628674622E0,7.650497462E0
1.311579000E0,-3.268153839E0,4.949008484E0,4.812941437E0,7.637926405E0
1.321517000E0,-3.475472717E0,4.355343018E0,6.586004333E0,8.626898428E0
1.331454000E0,-3.982468414E0,3.701053619E0,8.432414703E0,1.003311867E1
1.341391000E0,-4.343218231E0,3.250939636E0,9.920170898E0,1.130672118E1
1.351329000E0,-4.951553192E0,4.129013672E0,1.023975632E1,1.210038191E1
1.361266000E0,-5.469176788E0,4.624183960E0,1.040725800E1,1.263352647E1
1.371204000E0,-6.053411865E0,4.850363617E0,1.125719055E1,1.367092395E1
1.381141000E0,-6.848708038E0,4.639003143E0,1.219633759E1,1.473688578E1
1.391078000E0,-7.624694366E0,4.333039398E0,1.258882141E1,1.534241243E1
1.401016000E0,-8.275690613E0,3.940405884E0,1.290241928E1,1.582675826E1
1.410953000E0,-8.793463898E0,3.256178741E0,1.310390030E1,1.611334572E1
1.420890000E0,-9.084009705E0,2.905009003E0,1.321796310E1,1.629947417E1
1.430828000E0,-9.442364502E0,3.154390411E0,1.356000183E1,1.682207109E1
1.440765000E0,-9.990524597E0,3.394341431E0,1.334100723E1,1.700925070E1
1.450703000E0,-1.074959610E1,3.654350739E0,1.292906387E1,1.720664954E1
1.460640000E0,-1.128518234E1,3.462300110E0,1.277668076E1,1.739501175E1
1.470577000E0,-1.151121231E1,3.739373932E0,1.233330276E1,1.728008343E1
1.480515000E0,-1.122515717E1,3.487896881E0,1.207568848E1,1.685205715E1
1.490452000E0,-1.055994049E1,2.972069550E0,1.177047318E1,1.609004597E1
1.500389000E0,-9.850266266E0,2.913391571E0,1.094359268E1,1.500925770E1
1.510327000E0,-9.743238831E0,3.098855896E0,1.049108368E1,1.464911081E1
1.520264000E0,-1.002585114E1,3.398981781E0,1.038705002E1,1.483110165E1
1.530202000E0,-9.571246490E0,4.296066284E0,9.971963196E0,1.447428737E1
1.540139000E0,-9.180259552E0,4.441563721E0,9.563013611E0,1.398055375E1
1.550076000E0,-9.029822388E0,3.909719696E0,8.814869385E0,1.321081083E1
1.560014000E0,-8.871751099E0,3.539838867E0,8.112978973E0,1.253231242E1
1.569951000E0,-8.976233826E0,3.591032410E0,7.829318848E0,1.244051933E1
1.579888000E0,-9.309291229E0,4.384981384E0,7.699987793E0,1.285226739E1
1.589826000E0,-9.185947723E0,6.084098053E0,7.488327942E0,1.332189701E1
1.599763000E0,-8.907227325E0,6.871610413E0,7.125632172E0,1.331661977E1
1.609701000E0,-8.685388641E0,5.924829254E0,7.754025421E0,1.306386190E1
1.619638000E0,-8.492290192E0,5.434299316E0,7.226971436E0,1.240482639E1
1.629575000E0,-8.864715729E0,5.077740784E0,7.200925598E0,1.249879858E1
1.639513000E0,-9.085506592E0,4.756658478E0,7.559729462E0,1.274055491E1
1.649450000E0,-9.250463562E0,4.961881714E0,6.651118927E0,1.242693563E1
1.659387000E0,-9.239236908E0,5.375321960E0,6.414161682E0,1.246591573E1
1.669325000E0,-9.010662231E0,5.376220093E0,6.758894806E0,1.248112316E1
1.679262000E0,-8.631201324E0,5.289999390E0,5.711223450E0,1.162324409E1
1.689200000E0,-8.705147552E0,6.091133423E0,4.593348083E0,1.157498799E1
1.699137000E0,-9.058113556E0,7.485034790E0,4.356989594E0,1.253229928E1
1.709074000E0,-8.995393982E0,8.552465057E0,4.808450775E0,1.331100936E1
1.719012000E0,-8.471034393E0,8.851543121E0,6.029761047E0,1.365526483E1
1.728949000E0,-8.422086182E0,9.047036591E0,6.732100525E0,1.407485645E1
1.738885417E0,-8.175997925E0,8.197702789E0,7.456743622E0,1.377143052E1
1.748823417E0,-7.778574371E0,8.437504120E0,7.418572998E0,1.366502544E1
1.758760417E0,-7.911048889E0,7.793243866E0,7.552993469E0,1.343008022E1
1.768698417E0,-7.846533051E0,7.540419617E0,8.023764496E0,1.352060670E1
1.778635417E0,-7.370971985E0,7.304510193E0,8.438402252E0,1.337511606E1
1.788572417E0,-6.479126587E0,6.594087524E0,8.799152069E0,1.276268580E1
1.798510417E0,-5.864205322E0,5.950575714E0,8.632548523E0,1.201329053E1
1.808447417E0,-5.155728607E0,5.376369781E0,8.243507538E0,1.111045931E1
1.818384417E0,-5.673052826E0,5.212909698E0,9.123826904E0,1.194161519E1
1.828322417E0,-4.755161591E0,4.948559418E0,1.090931396E1,1.288848064E1
1.838259417E0,-5.334606628E0,4.365521851E0,1.118519028E1,1.313865634E1
1.848197417E0,-5.055437164E0,3.743864594E0,1.063538361E1,1.235659142E1
1.858134417E0,-3.949536896E0,2.854264526E0,1.012913635E1,1.124033233E1
1.868071417E0,-3.249293060E0,2.255809021E0,9.432035980E0,1.022789726E1
1.878009417E0,-2.553390198E0,9.840536499E-1,7.717052307E0,8.187860490E0
1.887946417E0,-2.738555145E0,6.171665955E-1,6.279890900E0,6.878779587E0
1.897883417E0,-3.363655243E0,1.420396271E0,5.722150726E0,6.787835523E0
1.907821417E0,-1.616338806E0,-1.770817566E-1,1.076710968E1,1.088919464E1
1.917758417E0,-1.448837128E0,-6.171665955E-1,8.953331451E0,9.090773768E0
1.927696417E0,-2.460882568E0,-4.836442566E-1,5.205275574E0,5.777953667E0
1.937633417E0,-2.933000793E0,-3.267704773E-1,4.270020447E0,5.190601816E0
1.947570417E0,-2.590213623E0,-3.978726196E-1,4.626728668E0,5.317342137E0
1.957508417E0,-1.945354614E0,-6.619235229E-1,4.452341309E0,4.903660924E0
1.967445417E0,-2.053579559E0,-1.322799225E0,3.683240662E0,4.419643489E0
1.977382417E0,-2.654729462E0,-1.042731628E0,2.610720978E0,3.866618909E0
1.987320417E0,-2.505938873E0,6.587800598E-1,1.802102509E0,3.156151811E0
1.997257417E0,-9.488768005E-1,3.703149261E0,1.329684906E0,4.047436668E0
2.007195417E0,8.488847351E-1,5.943989410E0,1.687740326E0,6.236993091E0
2.017132417E0,1.341061249E0,6.360722809E0,2.427651672E0,6.939072890E0
2.027069417E0,1.051263885E0,6.860234070E0,2.560575256E0,7.397601834E0
2.037007417E0,8.122109985E-1,7.681276703E0,2.219284973E0,8.036599050E0
2.046944417E0,3.408412170E-1,7.650889893E0,1.591340790E0,7.822062029E0
2.056882417E0,-1.161135406E0,6.316864014E0,9.678872681E-1,6.495214559E0
2.066819417E0,-2.331401825E0,5.636528778E0,5.117857361E-1,6.121095962E0
2.076756417E0,-2.567760315E0,6.527026978E0,1.920506287E-1,7.016577345E0
2.086694417E0,-2.433788910E0,7.415130157E0,5.679190063E-1,7.824961068E0
2.096631417E0,-2.510429535E0,8.259673920E0,1.246457977E0,8.722277638E0
2.106568417E0,-2.729573822E0,8.025111694E0,1.557062073E0,8.618435662E0
2.116506417E0,-3.172951813E0,7.155270538E0,1.670226746E0,8.003447824E0
2.126443417E0,-3.757785645E0,6.428531799E0,2.148182831E0,7.749946033E0
2.136381417E0,-4.239933014E0,5.848188629E0,3.029999084E0,7.833213686E0
2.146318417E0,-4.248914337E0,5.787265320E0,3.822002106E0,8.133474843E0
2.156255417E0,-4.267475739E0,5.824837189E0,3.889661407E0,8.201801224E0
2.166193417E0,-4.582121429E0,6.191873932E0,3.399730225E0,8.419816220E0
2.176130417E0,-5.055736542E0,6.628366241E0,3.218008118E0,8.935954748E0
2.186067417E0,-5.088368683E0,6.662944336E0,2.942880249E0,8.885204963E0
2.196005417E0,-4.667294312E0,7.456743622E0,2.695594482E0,9.200700585E0
2.205942417E0,-3.439996490E0,9.205856323E0,3.018922119E0,1.028081987E1
2.215880417E0,-3.278332672E0,1.004740631E1,2.541714478E0,1.087005755E1
2.225817417E0,-3.381318512E0,1.116228790E1,2.127974854E0,1.185572702E1
2.235754417E0,-3.774999847E0,1.238314911E1,2.521656189E0,1.318907713E1
2.245692417E0,-4.326453094E0,1.310090652E1,3.192561035E0,1.416136978E1
2.255629417E0,-4.981790314E0,1.279628998E1,3.688030701E0,1.421846836E1
2.265567417E0,-5.073699188E0,1.193348419E1,3.629502411E0,1.346565097E1
2.275504417E0,-4.011657715E0,1.187495590E1,3.209475861E0,1.293865181E1
2.285441417E0,-2.495909729E0,1.207374252E1,2.918031921E0,1.266963828E1
2.295379417E0,-1.911524963E0,1.246173569E1,2.727478180E0,1.289914421E1
2.305316417E0,-2.547702026E0,1.236099518E1,2.200424194E0,1.281120034E1
2.315253417E0,-3.426225128E0,1.142214752E1,1.650467834E0,1.203862603E1
2.325191417E0,-3.096161499E0,1.121542740E1,8.728349304E-1,1.166764195E1
2.335128417E0,-2.321222992E0,1.102217926E1,5.763015747E-2,1.126409486E1
2.345066417E0,-1.837429047E0,1.069316345E1,-6.047424316E-1,1.086672000E1
2.355003417E0,-1.847757568E0,1.009530670E1,-8.806187439E-1,1.030072399E1
2.364940417E0,-1.795366516E0,8.912017365E0,-1.009051666E0,9.146889072E0
2.374878417E0,-1.474882965E0,7.204518127E0,-1.327289886E0,7.472754489E0
2.384815417E0,-1.110690308E0,6.011798401E0,-1.689835968E0,6.342783188E0
2.394753417E0,-9.518705750E-1,4.891977081E0,-1.962269440E0,5.356117877E0
2.404690417E0,-8.542735291E-1,3.889960785E0,-2.197879486E0,4.548873751E0
2.414627417E0,-6.563850403E-1,3.104544067E0,-2.316133575E0,3.928550614E0
2.424565417E0,-5.472619629E-1,2.225571899E0,-2.194286957E0,3.172942039E0
2.434502417E0,-4.099974060E-1,1.691183167E0,-2.097138977E0,2.725103716E0
2.444440417E0,-1.219963074E-1,1.408570862E0,-2.073188782E0,2.509395684E0
2.454377417E0,3.326083374E-1,1.431772614E0,-1.994901581E0,2.477949443E0
2.464314417E0,4.546046448E-1,1.132694550E0,-1.794019318E0,2.169831246E0
2.474252417E0,3.986210632E-1,5.460644531E-1,-1.453178101E0,1.602751300E0
2.484189417E0,3.987707520E-1,6.991960144E-1,-1.105900269E0,1.367811604E0
2.494126417E0,3.668870544E-1,1.160985718E0,-1.216370544E0,1.721061082E0
2.504064417E0,6.628216553E-1,1.961820374E0,-1.051563263E0,2.322467873E0
2.514001417E0,4.160897369E0,3.392844543E0,-2.839595032E-1,5.376345786E0
2.523939417E0,3.430266724E0,3.045417023E0,1.333726501E-1,4.589017640E0
2.533876417E0,-2.215393066E-2,2.389630737E0,-5.721102905E-1,2.457261899E0
2.543813417E0,3.278182983E-1,2.946023712E0,2.838098145E-1,2.977762341E0
2.553751417E0,2.416125641E0,2.090971802E1,5.139711914E0,2.166727046E1
2.563688417E0,3.678001556E0,4.816758499E1,2.102303238E1,5.268407568E1
2.573626417E0,3.342698822E0,4.353636566E1,1.531869461E1,4.627365530E1
2.583563417E0,4.085603943E0,3.590179184E1,9.259744263E-1,3.614537654E1
2.593500417E0,1.422641602E0,2.818369171E1,-1.268282593E1,3.093862410E1
2.603438417E0,7.824229431E-1,2.037218582E1,-7.273824005E0,2.164593857E1
2.613375417E0,1.709594879E0,1.516840714E1,-3.171754303E0,1.559048797E1
2.623313417E0,2.366129608E0,1.170625671E1,-1.180445251E0,1.200118605E1
2.633250417E0,1.513951721E0,8.707692261E0,1.944456482E-1,8.840461721E0
2.643187417E0,8.352630615E-1,6.206842804E0,2.649490356E-1,6.268393731E0
2.653125417E0,-2.815644836E-1,4.527335358E0,-2.743794250E-1,4.544373232E0
2.663062417E0,-1.140628052E0,3.906725922E0,-7.048841858E-1,4.130423888E0
2.673000417E0,-1.390458527E0,4.413871307E0,1.556762695E-2,4.627729161E0
2.682937417E0,-1.142574005E0,5.766009521E0,5.135820007E-1,5.900517573E0
2.692874417E0,-9.011260986E-1,7.378157043E0,1.044976959E0,7.506077967E0
2.702812417E0,-8.241860962E-1,8.669970703E0,1.180594940E0,8.788713167E0
2.712749417E0,-9.276210022E-1,9.552535400E0,1.337618408E0,9.690234069E0
2.722687417E0,-1.141825562E0,1.026116180E1,1.732048187E0,1.046877252E1
2.732624500E0,-1.096619568E0,1.083791245E1,1.943109283E0,1.106519744E1
2.742561500E0,-5.087919617E-1,1.115704880E1,1.692081299E0,1.129609429E1
2.752499500E0,7.783813477E-3,1.116438354E1,1.184486847E0,1.122704456E1
2.762436500E0,3.553610229E-1,1.084554657E1,5.499563599E-1,1.086529401E1
2.772373500E0,6.779402161E-1,1.040216858E1,-1.034349060E-1,1.042475001E1
2.782311500E0,9.539662170E-1,1.000085312E1,-7.364685059E-1,1.007320706E1
2.792248500E0,1.136885834E0,9.869426422E0,-1.115779724E0,9.997152179E0
2.802186500E0,7.105723572E-1,9.731712799E0,-1.074765015E0,9.816632157E0
2.812123500E0,2.100132751E-1,9.545350342E0,-7.476951599E-1,9.576892334E0
2.822061500E0,-2.918930054E-2,9.375753021E0,-3.029699707E-1,9.380692274E0
2.831998500E0,-1.187031555E-1,9.320068817E0,1.474433899E-1,9.321990815E0
2.841935500E0,-1.685494995E-1,9.402098236E0,5.236111450E-1,9.418175450E0
2.851873500E0,-2.318678284E-1,9.601633301E0,6.054908752E-1,9.623499568E0
2.861810500E0,-5.134323120E-2,9.724378052E0,3.272195435E-1,9.730017330E0
2.871747500E0,3.171903992E-1,9.799821167E0,8.367599487E-2,9.805310109E0
2.881685500E0,5.343887329E-1,9.925559692E0,7.244934082E-2,9.940198963E0
2.891622500E0,6.300398254E-1,9.966125336E0,1.636097717E-1,9.987360640E0
2.901560500E0,7.560777283E-1,9.942773895E0,1.586700439E-1,9.972741972E0
2.911497500E0,8.976832581E-1,9.890083466E0,1.197509766E-1,9.931461448E0
2.921434500E0,8.312214661E-1,9.908046112E0,1.737886047E-1,9.944370737E0
2.931372500E0,5.911207581E-1,9.970765686E0,2.826123047E-1,9.992270104E0
2.941309500E0,3.848497009E-1,1.000714005E1,2.921923828E-1,1.001879921E1
2.951247500E0,2.900967407E-1,1.001597168E1,2.267784119E-1,1.002273781E1
2.961184500E0,2.266287231E-1,9.984237671E0,1.056802368E-1,9.987368560E0
2.971121500E0,1.097218323E-1,9.774224396E0,1.513352966E-1,9.776011651E0
2.981059500E0,1.338217163E-1,9.600735168E0,2.914439392E-1,9.606089922E0
2.990996500E0,1.459465027E-1,9.513915710E0,4.403842163E-1,9.525220774E0
3.000934500E0,7.858657837E-2,9.496102753E0,5.834866333E-1,9.514336550E0
3.010871500E0,1.466949463E-2,9.558972015E0,6.637197876E-1,9.581997972E0
3.020808500E0,-1.676513672E-2,9.700577545E0,6.770420837E-1,9.724190031E0
3.030746500E0,-6.421646118E-2,9.897418213E0,6.497987366E-1,9.918933886E0
3.040683500E0,-8.861572266E-2,1.007674530E1,6.292913818E-1,1.009676464E1
3.050621500E0,-9.610015869E-2,1.019230499E1,6.233038330E-1,1.021179827E1
3.060558500E0,-1.345701599E-1,1.015578094E1,6.150709534E-1,1.017527926E1
3.070496500E0,-1.683998108E-1,9.989177399E0,6.114784241E-1,1.000929216E1
3.080433500E0,-1.983375549E-1,9.801318054E0,5.587879944E-1,9.819237109E0
3.090370500E0,-1.784289551E-1,9.637408905E0,4.858895874E-1,9.651299186E0
3.100308500E0,-1.305285645E-1,9.498497772E0,4.649331665E-1,9.510765505E0
3.110245500E0,-4.415817261E-2,9.395960999E0,4.622387695E-1,9.407427795E0
3.120183500E0,6.810836792E-2,9.341773682E0,4.668791199E-1,9.353681114E0
3.130120500E0,1.692979431E-1,9.365424500E0,4.685256958E-1,9.378664840E0
3.140057500E0,2.589614868E-1,9.442364502E0,4.537065125E-1,9.456804854E0
3.149995500E0,3.221301270E-1,9.543554077E0,4.568499756E-1,9.559911304E0
3.159932500E0,3.603007507E-1,9.658215637E0,4.556524658E-1,9.675668716E0
3.169870500E0,3.356021118E-1,9.774074707E0,4.929249573E-1,9.792248984E0
3.179807500E0,3.079096985E-1,9.879455566E0,5.065466309E-1,9.897223861E0
3.189744500E0,2.451901245E-1,9.959089966E0,4.647834778E-1,9.972944140E0
3.199682500E0,1.493893433E-1,9.992919617E0,3.803590393E-1,1.000127155E1
3.209619500E0,9.400451660E-2,9.973460083E0,3.004252625E-1,9.978426640E0
3.219557500E0,9.295669556E-2,9.911488953E0,2.204914856E-1,9.914376970E0
3.229494500E0,1.222956848E-1,9.805509338E0,1.535806274E-1,9.807474529E0
3.239431500E0,1.559756470E-1,9.721533966E0,1.604663086E-1,9.724109239E0
3.249369500E0,2.276765442E-1,9.691895599E0,2.392025757E-1,9.697520033E0
3.259306500E0,2.526745605E-1,9.698481903E0,3.495231628E-1,9.708066857E0
3.269244500E0,2.233355713E-1,9.724527740E0,4.435276794E-1,9.737198537E0
3.279181500E0,2.173480225E-1,9.764344940E0,4.697232056E-1,9.778052575E0
3.289118500E0,2.318678284E-1,9.810598755E0,4.625381470E-1,9.824232904E0
3.299056500E0,2.276765442E-1,9.858948212E0,4.493655396E-1,9.871809654E0
3.308993500E0,2.240840149E-1,9.909992065E0,4.436773682E-1,9.922449596E0
3.318931500E0,2.011816406E-1,9.916877747E0,4.254153442E-1,9.928036891E0
3.328868500E0,1.930984497E-1,9.879605255E0,3.860472107E-1,9.889030259E0
3.338805500E0,1.695973206E-1,9.823471985E0,3.347039795E-1,9.830635373E0
3.348743500E0,1.835183716E-1,9.774523773E0,3.059637451E-1,9.781033064E0
3.358680500E0,2.267784119E-1,9.715546417E0,3.287164307E-1,9.723750569E0
3.368618500E0,2.392025757E-1,9.692494354E0,3.544628906E-1,9.701922934E0
3.378555500E0,2.730322266E-1,9.703271942E0,3.730242920E-1,9.714277127E0
3.388493500E0,3.095562744E-1,9.737400970E0,4.242178345E-1,9.751551852E0
3.398430500E0,2.812651062E-1,9.742490387E0,4.674778748E-1,9.757754074E0
3.408367500E0,2.146536255E-1,9.735455017E0,5.075944519E-1,9.751041621E0
3.418305500E0,1.468446350E-1,9.716444550E0,5.312452698E-1,9.732064507E0
3.428242500E0,1.261875916E-1,9.693991241E0,5.324427795E-1,9.709422476E0
3.438180500E0,9.894424438E-2,9.669891357E0,5.126838684E-1,9.683978190E0
3.448117500E0,6.391708374E-2,9.639354858E0,4.818479919E-1,9.651602197E0
3.458054500E0,2.619552612E-2,9.667196960E0,4.575984192E-1,9.678056602E0
3.467992500E0,-1.272354126E-2,9.722132721E0,4.451742554E-1,9.732327915E0
3.477929500E0,-2.305206299E-2,9.789941711E0,4.306544495E-1,9.799436380E0
3.487867500E0,-4.790039062E-3,9.833950195E0,4.068539429E-1,9.842364021E0
3.497804500E0,-1.796264648E-3,9.834848328E0,3.923341370E-1,9.842670925E0
3.507741500E0,3.442840576E-3,9.794881439E0,4.192781067E-1,9.803851712E0
3.517679500E0,5.239105225E-3,9.762099609E0,4.472698975E-1,9.772341920E0
3.527616500E0,1.945953369E-3,9.750723267E0,4.498146057E-1,9.761093237E0
3.537554500E0,-2.754272461E-2,9.736053772E0,4.128414917E-1,9.744841700E0
3.547491500E0,-7.035369873E-2,9.755363617E0,3.721261597E-1,9.762712063E0
3.557429500E0,-9.669891357E-2,9.767787781E0,3.570075989E-1,9.774788143E0
3.567366500E0,-3.487747192E-2,9.831106110E0,3.574566650E-1,9.837664308E0
3.577303500E0,1.496887207E-3,9.823471985E0,3.844006348E-1,9.830990180E0
3.587241500E0,1.122665405E-2,9.805509338E0,4.296066284E-1,9.814922378E0
3.597178500E0,1.152603149E-2,9.799521790E0,4.751119995E-1,9.811039270E0
3.607116500E0,1.227447510E-2,9.779014435E0,4.496649170E-1,9.789355061E0
3.617053500E0,5.119354248E-2,9.747729492E0,4.056564331E-1,9.756300947E0
3.626990500E0,2.160008240E-1,9.728719025E0,3.426374817E-1,9.737146947E0
3.636928500E0,2.796185303E-1,9.770332489E0,3.248245239E-1,9.779728751E0
3.646865500E0,1.595681763E-1,9.732760620E0,3.353027344E-1,9.739841848E0
3.656803500E0,2.430944824E-1,9.731413422E0,3.595523071E-1,9.741087207E0
3.666740500E0,2.600093079E-1,9.728569336E0,4.001179504E-1,9.740264911E0
3.676677500E0,2.942880249E-1,9.743987274E0,3.631448364E-1,9.755191829E0
3.686615500E0,3.682342529E-1,9.810598755E0,2.999761963E-1,9.822088887E0
3.696552500E0,4.092489624E-1,9.838590546E0,2.755769348E-1,9.850953826E0
3.706490500E0,4.411326599E-1,9.840835876E0,2.823129272E-1,9.854762775E0
3.716427500E0,4.183799744E-1,9.811496887E0,3.356021118E-1,9.826145824E0
3.726365500E0,3.661386108E-1,9.756561127E0,3.594026184E-1,9.770041594E0
3.736302500E0,2.932402039E-1,9.692344666E0,3.393443298E-1,9.702715574E0
3.746239500E0,2.421963501E-1,9.667047272E0,2.999761963E-1,9.674732438E0
3.756177500E0,2.540217590E-1,9.701026611E0,3.053649902E-1,9.709155069E0
3.766114500E0,3.076103210E-1,9.760752411E0,3.350033569E-1,9.771342742E0
3.776052500E0,3.258723450E-1,9.811047821E0,3.574566650E-1,9.822964288E0
3.785989500E0,2.959346008E-1,9.827064514E0,3.231779480E-1,9.836829684E0
3.795926500E0,2.427951050E-1,9.806257782E0,3.182382202E-1,9.814423911E0
3.805864500E0,2.128573608E-1,9.768386536E0,3.456312561E-1,9.776816697E0
3.815801500E0,2.019300842E-1,9.784552917E0,3.558100891E-1,9.793102285E0
3.825739500E0,1.692979431E-1,9.802665253E0,3.827540588E-1,9.811595615E0
3.835676500E0,1.562750244E-1,9.835596771E0,3.761677551E-1,9.844028033E0
3.845614500E0,1.649569702E-1,9.845775604E0,3.806584167E-1,9.854512108E0
3.855551500E0,1.562750244E-1,9.806856537E0,3.712280273E-1,9.815124414E0
3.865488500E0,1.561253357E-1,9.790241089E0,3.520678711E-1,9.797813403E0
3.875426500E0,1.567240906E-1,9.775870972E0,3.505709839E-1,9.783410229E0
3.885363500E0,1.694476318E-1,9.771230621E0,3.847000122E-1,9.780268629E0
3.895301500E0,1.775308228E-1,9.776469727E0,4.257147217E-1,9.787344407E0
3.905238500E0,1.565744019E-1,9.780211945E0,4.608915710E-1,9.792317512E0
3.915175500E0,1.501377869E-1,9.768386536E0,4.544549561E-1,9.780104609E0
3.925113500E0,1.743873596E-1,9.762398987E0,4.116439819E-1,9.772629927E0
3.935050500E0,2.136058044E-1,9.730814667E0,3.960763550E-1,9.741214401E0
3.944988500E0,2.411485291E-1,9.704469452E0,4.334985352E-1,9.717139545E0
3.954925500E0,2.314187622E-1,9.711953888E0,4.936734009E-1,9.727246085E0
3.964863500E0,1.839674377E-1,9.733509064E0,5.433700562E-1,9.750399670E0
3.974800500E0,1.219963074E-1,9.769883423E0,5.447172546E-1,9.785817395E0
3.984737500E0,1.116677856E-1,9.783355408E0,4.924758911E-1,9.796379190E0
3.994675500E0,1.308279419E-1,9.779164124E0,4.511618042E-1,9.790439923E0
4.004612500E0,1.764830017E-1,9.768236847E0,4.421804810E-1,9.779832357E0
4.014550500E0,2.061213684E-1,9.756860504E0,4.348457336E-1,9.768720680E0
4.024487500E0,2.028282166E-1,9.744586029E0,4.306544495E-1,9.756206200E0
4.034425500E0,1.818717957E-1,9.736203461E0,4.317022705E-1,9.747466442E0
4.044362500E0,1.547781372E-1,9.732610931E0,4.198768616E-1,9.742893225E0
4.054299500E0,1.559756470E-1,9.727820892E0,4.138893127E-1,9.737871024E0
4.064237500E0,1.820214844E-1,9.718240814E0,4.327500916E-1,9.729573936E0
4.074174500E0,2.025288391E-1,9.712253265E0,4.825964355E-1,9.726344675E0
4.084112500E0,1.889071655E-1,9.721983032E0,5.291496277E-1,9.738205139E0
4.094049500E0,1.601669312E-1,9.738897858E0,5.529501343E-1,9.755897641E0
4.103986500E0,1.200503540E-1,9.759405212E0,5.408253479E-1,9.775116073E0
4.113924500E0,9.654922485E-2,9.782157898E0,4.893324280E-1,9.794865038E0
4.123861500E0,1.091230774E-1,9.779313812E0,4.312532043E-1,9.789426225E0
4.133799500E0,1.245410156E-1,9.763297119E0,4.198768616E-1,9.773115045E0
4.143736500E0,1.547781372E-1,9.767039337E0,4.282594299E-1,9.777648993E0
4.153674500E0,1.526824951E-1,9.790091400E0,4.692741394E-1,9.802521093E0
4.163611500E0,1.368154907E-1,9.794731750E0,4.923262024E-1,9.808051470E0
4.173548500E0,1.321751404E-1,9.793384552E0,4.915777588E-1,9.806604914E0
4.183486500E0,1.444496155E-1,9.770631866E0,5.017565918E-1,9.784573186E0
4.193423500E0,1.243913269E-1,9.781708832E0,5.122348022E-1,9.795901457E0
4.203361500E0,1.013392639E-1,9.781559143E0,5.297483826E-1,9.796417828E0
4.213298500E0,2.109114075E-1,9.831555176E0,5.159770203E-1,9.847344469E0
4.223236500E0,2.073188782E-1,9.825118561E0,4.787045288E-1,9.838957967E0
4.233173500E0,2.134561157E-1,9.802964630E0,4.345463562E-1,9.814912612E0
4.243110500E0,2.483335876E-1,9.794432373E0,4.159849548E-1,9.806407016E0
4.253048500E0,2.308200073E-1,9.773176575E0,4.432283020E-1,9.785944490E0
4.262985500E0,1.963916016E-1,9.765841827E0,5.183720398E-1,9.781561523E0
4.272923500E0,1.505868530E-1,9.760902100E0,5.703140259E-1,9.778708723E0
4.282860500E0,1.215472412E-1,9.774523773E0,5.939648438E-1,9.793308070E0
4.292798500E0,1.429527283E-1,9.790540466E0,5.643264771E-1,9.807832711E0
4.302735500E0,1.520837402E-1,9.756710815E0,4.957690430E-1,9.770482196E0
4.312672500E0,1.634600830E-1,9.692793732E0,4.514611816E-1,9.704678600E0
4.322610500E0,2.182461548E-1,9.664502563E0,4.435276794E-1,9.677135836E0
4.332547500E0,2.396516418E-1,9.648635559E0,4.638853455E-1,9.662752748E0
4.342485500E0,2.453398132E-1,9.686357117E0,4.816983032E-1,9.701429744E0
4.352422500E0,2.414479065E-1,9.721683655E0,5.101391602E-1,9.738052790E0
4.362360500E0,2.435435486E-1,9.741143188E0,5.095404053E-1,9.757500474E0
4.372297500E0,2.673440552E-1,9.748477936E0,4.760101318E-1,9.763753405E0
4.382234500E0,2.947370911E-1,9.758058014E0,4.415817261E-1,9.772489989E0
4.392172500E0,3.450325012E-1,9.762398987E0,4.396357727E-1,9.778382331E0
4.402109500E0,4.090992737E-1,9.754465485E0,4.674778748E-1,9.774226039E0
4.412047500E0,4.245172119E-1,9.750124512E0,5.319937134E-1,9.773850836E0
4.421984500E0,3.851490784E-1,9.767488403E0,5.837860107E-1,9.792495883E0
4.431922500E0,3.083587646E-1,9.765991516E0,5.831872559E-1,9.788247177E0
4.441859500E0,2.462379456E-1,9.740993500E0,5.327421570E-1,9.758657781E0
4.451796500E0,2.386038208E-1,9.727371826E0,4.505630493E-1,9.740723869E0
4.461734500E0,2.667453003E-1,9.714049530E0,3.972738647E-1,9.725828389E0
4.471671500E0,3.173400879E-1,9.723030853E0,3.821553040E-1,9.735711396E0
4.481609500E0,3.281176758E-1,9.754914551E0,4.254153442E-1,9.769697913E0
4.491546500E0,2.896476746E-1,9.790690155E0,4.788542175E-1,9.806671752E0
4.501483500E0,2.716850281E-1,9.781110077E0,5.135820007E-1,9.798351574E0
4.511421500E0,2.607577515E-1,9.743089142E0,5.213658142E-1,9.760512432E0
4.521358500E0,2.725831604E-1,9.736802216E0,4.837939453E-1,9.752624034E0
4.531296500E0,2.950364685E-1,9.741292877E0,4.710704041E-1,9.757137939E0
4.541233500E0,2.918930054E-1,9.748328247E0,4.882846069E-1,9.764913056E0
4.551171500E0,2.724334717E-1,9.761051788E0,5.225633240E-1,9.778825310E0
4.561108500E0,2.543211365E-1,9.779463501E0,5.264552307E-1,9.796925064E0
4.571046500E0,2.459385681E-1,9.780960388E0,5.049000549E-1,9.797070785E0
4.580983500E0,2.254312134E-1,9.762548676E0,4.534071350E-1,9.775671532E0
4.590920500E0,2.411485291E-1,9.757010193E0,4.213737488E-1,9.769081654E0
4.600858500E0,2.694396973E-1,9.755513306E0,4.450245667E-1,9.769374825E0
4.610795500E0,2.537223816E-1,9.772128754E0,4.963677979E-1,9.788015959E0
4.620733500E0,2.149530029E-1,9.794731750E0,5.384303284E-1,9.811874544E0
4.630670500E0,1.648072815E-1,9.808802490E0,5.252577209E-1,9.824238566E0
4.640608500E0,1.609153748E-1,9.784253540E0,4.764591980E-1,9.797169207E0
4.650545500E0,1.880090332E-1,9.759255524E0,4.462220764E-1,9.771260406E0
4.660482500E0,2.368075562E-1,9.726324005E0,4.571493530E-1,9.739940554E0
4.670420500E0,2.659968567E-1,9.687404938E0,4.923262024E-1,9.703553671E0
4.680357500E0,2.739303589E-1,9.696985016E0,5.251080322E-1,9.715055053E0
4.690295500E0,2.612068176E-1,9.729168091E0,5.382806396E-1,9.747547732E0
4.700232500E0,2.475851440E-1,9.762249298E0,5.337899780E-1,9.779966334E0
4.710170500E0,2.627037048E-1,9.789492645E0,5.087919617E-1,9.806225000E0
4.720107500E0,2.755769348E-1,9.816286926E0,4.971162415E-1,9.832728829E0
4.730044500E0,2.969824219E-1,9.836195526E0,4.911286926E-1,9.852925879E0
4.739982292E0,2.942880249E-1,9.815987549E0,5.056484985E-1,9.833407212E0
4.749919292E0,2.622546387E-1,9.803862762E0,5.248086548E-1,9.821401462E0
4.759857292E0,2.288740540E-1,9.800419922E0,5.216651917E-1,9.816962287E0
4.769794292E0,2.278262329E-1,9.795031128E0,4.941224670E-1,9.810132344E0
4.779732292E0,2.487826538E-1,9.774972839E0,4.495152283E-1,9.788465189E0
4.789669292E0,2.896476746E-1,9.755513306E0,4.438270569E-1,9.769898571E0
4.799606292E0,3.082090759E-1,9.737550659E0,4.719685364E-1,9.753852571E0
4.809544292E0,3.029699707E-1,9.728569336E0,4.953199768E-1,9.745880874E0
4.819481292E0,2.692900085E-1,9.724827118E0,5.095404053E-1,9.741889499E0
4.829419292E0,2.463876343E-1,9.738149414E0,5.102888489E-1,9.754622268E0
4.839356292E0,2.450404358E-1,9.743687897E0,5.276527405E-1,9.761040726E0
4.849294292E0,2.724334717E-1,9.754315796E0,5.209167480E-1,9.772013656E0
4.859231292E0,3.065625000E-1,9.764344940E0,5.161267090E-1,9.782780763E0
4.869169292E0,3.062631226E-1,9.786199493E0,4.996609497E-1,9.803731876E0
4.879106292E0,2.847079468E-1,9.793833618E0,5.105882263E-1,9.811265764E0
4.889043292E0,2.727328491E-1,9.787846069E0,4.909790039E-1,9.803946872E0
4.898981292E0,2.751278687E-1,9.790241089E0,4.487667847E-1,9.804382059E0
4.908918292E0,2.893482971E-1,9.794432373E0,4.207749939E-1,9.807735699E0
4.918856292E0,3.088078308E-1,9.785301361E0,4.370910645E-1,9.799925184E0
4.928793292E0,3.231779480E-1,9.770482178E0,4.635859680E-1,9.786811428E0
4.938731292E0,2.998265076E-1,9.760303345E0,5.092410278E-1,9.778176913E0
4.948668292E0,2.784210205E-1,9.751771088E0,5.225633240E-1,9.769730295E0
4.958605292E0,2.453398132E-1,9.723479919E0,5.056484985E-1,9.739709122E0
4.968543292E0,2.448907471E-1,9.694739685E0,4.700225830E-1,9.709215739E0
4.978480292E0,2.671943665E-1,9.680219879E0,4.772076416E-1,9.695657630E0
4.988418292E0,2.851570129E-1,9.680219879E0,5.037025452E-1,9.697509355E0
4.998355292E0,2.842588806E-1,9.718839569E0,5.245092773E-1,9.737132826E0
5.008293292E0,2.743794250E-1,9.739945679E0,5.237608337E-1,9.757876373E0
5.018230292E0,2.838098145E-1,9.766590271E0,4.995112610E-1,9.783473056E0
5.028167292E0,3.034190369E-1,9.794432373E0,4.849914551E-1,9.811125590E0
5.038105292E0,3.053649902E-1,9.800270233E0,4.766088867E-1,9.816603305E0
5.048042292E0,2.885998535E-1,9.799821167E0,4.788542175E-1,9.815757034E0
5.057980292E0,2.773731995E-1,9.788594513E0,4.796026611E-1,9.804261173E0
5.067917292E0,2.670446777E-1,9.761800232E0,4.508624268E-1,9.775854620E0
5.077855292E0,2.797682190E-1,9.768985291E0,4.469705200E-1,9.783206351E0
5.087792292E0,2.820135498E-1,9.742340698E0,4.541555786E-1,9.756997039E0
5.097730292E0,2.900967407E-1,9.748028870E0,4.623884583E-1,9.763299957E0
5.107667292E0,2.980302429E-1,9.748777313E0,5.040019226E-1,9.766345226E0
5.117604292E0,2.909948730E-1,9.746082916E0,5.275030518E-1,9.764684823E0
5.127542292E0,2.770738220E-1,9.770631866E0,5.626799011E-1,9.790741833E0
5.137479292E0,2.929408264E-1,9.807604980E0,5.704637146E-1,9.828548145E0
5.147417292E0,2.923420715E-1,9.812245331E0,5.622308350E-1,9.832686603E0
5.157354292E0,2.790197754E-1,9.817484436E0,5.396278381E-1,9.836262039E0
5.167292292E0,2.742297363E-1,9.801916809E0,4.974156189E-1,9.818360218E0
5.177229292E0,2.794688416E-1,9.772877197E0,4.848417664E-1,9.788886713E0
5.187167292E0,2.761756897E-1,9.750124512E0,4.935237122E-1,9.766512513E0
5.197104292E0,2.871029663E-1,9.718989258E0,5.029541016E-1,9.736228383E0
5.207041292E0,2.642005920E-1,9.709259491E0,5.474116516E-1,9.728267129E0
5.216979292E0,2.324665833E-1,9.744136963E0,5.873785400E-1,9.764592127E0
5.226916292E0,2.065704346E-1,9.775272217E0,5.906716919E-1,9.795280052E0
5.236854292E0,2.332150269E-1,9.790091400E0,5.680686951E-1,9.809331318E0
5.246791292E0,3.031196594E-1,9.780211945E0,5.664221191E-1,9.801288753E0
5.256729292E0,3.592529297E-1,9.753417664E0,5.586383057E-1,9.776006114E0
5.266666292E0,3.564088440E-1,9.731712799E0,5.728587341E-1,9.755071932E0
5.276603292E0,3.086581421E-1,9.713600464E0,5.496569824E-1,9.734034447E0
5.286541292E0,2.592608643E-1,9.686955872E0,5.224136353E-1,9.704496188E0
5.296478292E0,2.374063110E-1,9.682614899E0,4.897814941E-1,9.697900749E0
5.306416292E0,2.312690735E-1,9.706565094E0,4.957690430E-1,9.721968846E0
5.316353292E0,2.553689575E-1,9.723629608E0,5.333409119E-1,9.741593226E0
5.326291292E0,2.619552612E-1,9.733359375E0,5.658233643E-1,9.753310277E0
5.336228292E0,2.565664673E-1,9.757159882E0,5.878276062E-1,9.778217455E0
5.346166292E0,2.573149109E-1,9.767638092E0,5.795947266E-1,9.788201822E0
5.356103292E0,2.597099304E-1,9.795330505E0,5.267546082E-1,9.812921042E0
5.366040292E0,2.972817993E-1,9.798174591E0,4.855902100E-1,9.814703237E0
5.375978292E0,3.507206726E-1,9.797126770E0,4.848417664E-1,9.815384326E0
5.385915292E0,3.760180664E-1,9.776020660E0,4.733157349E-1,9.794692304E0
5.395853292E0,3.799099731E-1,9.756411438E0,4.733157349E-1,9.775271020E0
5.405790292E0,3.689826965E-1,9.754315796E0,4.953199768E-1,9.773851173E0
5.415728292E0,3.480262756E-1,9.751471710E0,5.125341797E-1,9.771131669E0
5.425665292E0,3.279679871E-1,9.725874939E0,5.225633240E-1,9.745423478E0
5.435603292E0,3.179388428E-1,9.712253265E0,5.156776428E-1,9.731129021E0
5.445540292E0,3.161425781E-1,9.688752136E0,5.008584595E-1,9.706838995E0
5.455477292E0,3.273692322E-1,9.686806183E0,4.825964355E-1,9.704343561E0
5.465415292E0,3.426374817E-1,9.713899841E0,4.812492371E-1,9.731847276E0
5.475352292E0,3.571572876E-1,9.746831360E0,5.077441406E-1,9.766580108E0
5.485290292E0,3.519181824E-1,9.762548676E0,5.191204834E-1,9.782672903E0
5.495227292E0,3.272195435E-1,9.754914551E0,5.122348022E-1,9.773833179E0
5.505165292E0,3.240760803E-1,9.743388519E0,4.710704041E-1,9.760151252E0
5.515102292E0,3.487747192E-1,9.758207703E0,4.276606750E-1,9.773799416E0
5.525040292E0,3.806584167E-1,9.771679688E0,4.141886902E-1,9.787858653E0
5.534977292E0,3.716770935E-1,9.762249298E0,4.484674072E-1,9.779610331E0
5.544914292E0,3.638932800E-1,9.759854279E0,5.049000549E-1,9.779677803E0
5.554852292E0,3.071612549E-1,9.761800232E0,5.252577209E-1,9.780745753E0
5.564789292E0,2.697390747E-1,9.779912567E0,4.945715332E-1,9.796124233E0
5.574727292E0,2.499801636E-1,9.795480194E0,4.601431274E-1,9.809467570E0
5.584664292E0,2.586621094E-1,9.808503113E0,4.177812195E-1,9.820803457E0
5.594602292E0,2.905458069E-1,9.824519806E0,3.763174438E-1,9.836016526E0
5.604539292E0,3.195854187E-1,9.853409729E0,3.709286499E-1,9.865566694E0
5.614477292E0,3.586541748E-1,9.850266266E0,3.655398560E-1,9.863569218E0
5.624414292E0,4.013154602E-1,9.842781830E0,3.484753418E-1,9.857121452E0
5.634352292E0,4.495152283E-1,9.801318054E0,3.598516846E-1,9.818217393E0
5.644289292E0,4.435276794E-1,9.761800232E0,3.969744873E-1,9.779930946E0
5.654226292E0,3.902384949E-1,9.746981049E0,4.676275635E-1,9.765992074E0
5.664164292E0,3.399430847E-1,9.743238831E0,5.093907166E-1,9.762466036E0
5.674101292E0,2.933898926E-1,9.717791748E0,4.996609497E-1,9.735050855E0
5.684039292E0,3.100053406E-1,9.709409180E0,4.628375244E-1,9.725376522E0
5.693976292E0,3.266207886E-1,9.725874939E0,4.233197021E-1,9.740560766E0
5.703914292E0,3.335064697E-1,9.724827118E0,4.165837097E-1,9.739457430E0
5.713851292E0,3.124003601E-1,9.721833344E0,4.278103638E-1,9.736254888E0
5.723789292E0,2.698887634E-1,9.736053772E0,4.668791199E-1,9.750977341E0
5.733727417E0,2.365081787E-1,9.754016418E0,5.066963196E-1,9.770031401E0
5.743664417E0,1.992356873E-1,9.769883423E0,5.105882263E-1,9.785244876E0
5.753602417E0,2.041754150E-1,9.772428131E0,4.873864746E-1,9.786704489E0
5.763539417E0,2.564167786E-1,9.795180817E0,4.586462402E-1,9.809264660E0
5.773477417E0,3.089575195E-1,9.765392761E0,4.454736328E-1,9.780429300E0
5.783414417E0,3.149450684E-1,9.730365601E0,4.586462402E-1,9.746258846E0
5.793352417E0,2.703378296E-1,9.725425873E0,5.043013000E-1,9.742243620E0
5.803289417E0,2.074685669E-1,9.725575562E0,5.294490051E-1,9.742185559E0
5.813227417E0,1.683998108E-1,9.723330231E0,5.369334412E-1,9.739599930E0
5.823164417E0,1.820214844E-1,9.741592255E0,5.231620789E-1,9.757328017E0
5.833101417E0,2.323168945E-1,9.754166107E0,4.930746460E-1,9.769383307E0
5.843039417E0,2.866539001E-1,9.748178558E0,4.927752686E-1,9.764834004E0
5.852976417E0,2.947370911E-1,9.734407196E0,4.849914551E-1,9.750936884E0
5.862914417E0,2.653981018E-1,9.733658752E0,4.920268250E-1,9.749699444E0
5.872851417E0,2.151026917E-1,9.738598480E0,5.129832458E-1,9.754471864E0
5.882789417E0,1.892065430E-1,9.758656769E0,5.321434021E-1,9.774986325E0
5.892726417E0,2.011816406E-1,9.788145447E0,5.270539856E-1,9.804389387E0
5.902664417E0,2.324665833E-1,9.837243347E0,5.240602112E-1,9.853935076E0
5.912601417E0,2.547702026E-1,9.857750702E0,5.203179932E-1,9.874760127E0
5.922539417E0,2.752775574E-1,9.827812958E0,5.008584595E-1,9.844416918E0
5.932476417E0,2.847079468E-1,9.792636108E0,4.812492371E-1,9.808587125E0
5.942413417E0,2.664459229E-1,9.752519531E0,4.718188477E-1,9.767560784E0
5.952351417E0,2.556683350E-1,9.723928986E0,4.799020386E-1,9.739120452E0
5.962288417E0,2.311193848E-1,9.736951904E0,4.730163574E-1,9.751173931E0
5.972226417E0,2.540217590E-1,9.768536224E0,4.707710266E-1,9.783171898E0
5.982163417E0,3.153941345E-1,9.787097626E0,4.873864746E-1,9.804300025E0
5.992101417E0,3.529660034E-1,9.783355408E0,5.224136353E-1,9.803649527E0
6.002038417E0,3.318598938E-1,9.768536224E0,5.408253479E-1,9.789122689E0
6.011976417E0,2.823129272E-1,9.742191010E0,5.242098999E-1,9.760367937E0
6.021913417E0,2.510279846E-1,9.718689880E0,4.770579529E-1,9.733628939E0
6.031850417E0,2.404000854E-1,9.711055756E0,4.361929321E-1,9.723819227E0
6.041788417E0,2.659968567E-1,9.718689880E0,4.034111023E-1,9.730695136E0
6.051725417E0,3.189866638E-1,9.762099609E0,3.796105957E-1,9.774683907E0
6.061663417E0,3.616479492E-1,9.789642334E0,3.942800903E-1,9.804251275E0
6.071600417E0,3.704795837E-1,9.794282684E0,4.348457336E-1,9.810928561E0
6.081538417E0,3.338058472E-1,9.795480194E0,5.013075256E-1,9.813978185E0
6.091475417E0,2.736309814E-1,9.776769104E0,5.300477600E-1,9.794949650E0
6.101413417E0,2.240840149E-1,9.742939453E0,4.945715332E-1,9.758057380E0
6.111350417E0,2.164498901E-1,9.707463226E0,4.159849548E-1,9.718782657E0
6.121288417E0,2.486329651E-1,9.683962097E0,3.670367432E-1,9.694104199E0
6.131225417E0,3.074606323E-1,9.726024628E0,3.243754578E-1,9.736288129E0
6.141162417E0,3.535647583E-1,9.793384552E0,3.230282593E-1,9.805087265E0
6.151100417E0,3.764671326E-1,9.827513580E0,3.430865479E-1,9.840704195E0
6.161037417E0,3.472778320E-1,9.836943970E0,3.972738647E-1,9.851085985E0
6.170975417E0,2.888992310E-1,9.822573853E0,4.572990417E-1,9.837456087E0
6.180912417E0,2.411485291E-1,9.785900116E0,4.598437500E-1,9.799665809E0
6.190850417E0,2.245330811E-1,9.761051788E0,4.278103638E-1,9.773002038E0
6.200787417E0,2.236349487E-1,9.737101593E0,3.820056152E-1,9.747157961E0
6.210725417E0,2.311193848E-1,9.726773071E0,3.391946411E-1,9.735429295E0
6.220662417E0,2.502795410E-1,9.740245056E0,3.359014893E-1,9.749248351E0
6.230600417E0,2.621049500E-1,9.752818909E0,3.134481812E-1,9.761374157E0
6.240537417E0,2.860551453E-1,9.774523773E0,2.951861572E-1,9.783162955E0
6.250474417E0,3.046165466E-1,9.786349182E0,3.016227722E-1,9.795733656E0
6.260412417E0,3.210823059E-1,9.789642334E0,3.552113342E-1,9.801345110E0
6.270349417E0,3.064128113E-1,9.758357391E0,3.996688843E-1,9.771343971E0
6.280287417E0,2.827619934E-1,9.741741943E0,4.028123474E-1,9.754165686E0
6.290224417E0,2.511776733E-1,9.740544434E0,4.086502075E-1,9.752347978E0
6.300162417E0,2.372566223E-1,9.752818909E0,4.291575623E-1,9.765139199E0
6.310099417E0,2.216889954E-1,9.775421906E0,4.357438660E-1,9.787639764E0
6.320037417E0,2.157014465E-1,9.795031128E0,3.950285339E-1,9.805366360E0
6.329974417E0,2.049238586E-1,9.785900116E0,3.141966248E-1,9.793087071E0
6.339912417E0,2.297721863E-1,9.757459259E0,2.532733154E-1,9.763449893E0
6.349849417E0,2.571652222E-1,9.767488403E0,2.288740540E-1,9.773553448E0
6.359786417E0,2.594105530E-1,9.760902100E0,2.674937439E-1,9.768011903E0
6.369724417E0,2.481838989E-1,9.756261749E0,3.103047180E-1,9.764349829E0
6.379661417E0,2.682421875E-1,9.743987274E0,3.427871704E-1,9.753704164E0
6.389599417E0,2.881507874E-1,9.729617157E0,3.562591553E-1,9.740400479E0
6.399536417E0,2.972817993E-1,9.728868713E0,3.637435913E-1,9.740203915E0
6.409474417E0,3.064128113E-1,9.745334473E0,3.667373657E-1,9.757045100E0
6.419411417E0,3.257226562E-1,9.760602722E0,3.586541748E-1,9.772619586E0
6.429349417E0,3.261717224E-1,9.794731750E0,3.273692322E-1,9.805627398E0
6.439286417E0,3.186872864E-1,9.797725525E0,3.032693481E-1,9.807597022E0
6.449224417E0,3.341052246E-1,9.797276459E0,2.920426941E-1,9.807320799E0
6.459161417E0,3.508703613E-1,9.799222412E0,2.933898926E-1,9.809890291E0
6.469099417E0,3.469784546E-1,9.808054047E0,2.939886475E-1,9.818591933E0
6.479036417E0,3.544628906E-1,9.800270233E0,2.998265076E-1,9.811260700E0
6.488973417E0,3.600013733E-1,9.775721283E0,3.050656128E-1,9.787103382E0
6.498911417E0,3.604504395E-1,9.747430115E0,3.275189209E-1,9.759589490E0
6.508848417E0,3.622467041E-1,9.727072449E0,3.288661194E-1,9.739369283E0
6.518786417E0,3.507206726E-1,9.713600464E0,3.339555359E-1,9.725665286E0
6.528723417E0,3.418890381E-1,9.698182526E0,3.402424622E-1,9.710169790E0
6.538661417E0,3.472778320E-1,9.695488129E0,3.335064697E-1,9.707436248E0
6.548598417E0,3.354524231E-1,9.673932953E0,3.576063538E-1,9.686350676E0
6.558536417E0,3.100053406E-1,9.687255249E0,3.661386108E-1,9.699127541E0
6.568473417E0,2.820135498E-1,9.716893616E0,3.597019958E-1,9.727637879E0
6.578411417E0,2.683918762E-1,9.759255524E0,3.342549133E-1,9.768665667E0
6.588348417E0,2.809657288E-1,9.781858521E0,2.974314880E-1,9.790411807E0
6.598285417E0,3.028202820E-1,9.777667236E0,2.664459229E-1,9.785983351E0
6.608223417E0,3.023712158E-1,9.778565369E0,2.516267395E-1,9.786474597E0
6.618160417E0,2.909948730E-1,9.735005951E0,2.550695801E-1,9.742693640E0
6.628098417E0,2.673440552E-1,9.701325989E0,2.737806702E-1,9.708869895E0
6.638035417E0,2.600093079E-1,9.701026611E0,3.124003601E-1,9.709537380E0
6.647973417E0,2.683918762E-1,9.719288635E0,3.258723450E-1,9.728453040E0
6.657910417E0,2.926414490E-1,9.731413422E0,3.195854187E-1,9.741056464E0
6.667848417E0,3.297642517E-1,9.757309570E0,3.113525391E-1,9.767843924E0
6.677785417E0,3.375480652E-1,9.779014435E0,2.927911377E-1,9.789217980E0
6.687723417E0,3.135978699E-1,9.781110077E0,3.076103210E-1,9.790969414E0
6.697660417E0,2.627037048E-1,9.780062256E0,3.321592712E-1,9.789226770E0
6.707598417E0,2.264790344E-1,9.822873230E0,3.324586487E-1,9.831106753E0
6.717535417E0,2.085163879E-1,9.819280701E0,3.088078308E-1,9.826347991E0
6.727472417E0,2.411485291E-1,9.808353424E0,2.718347168E-1,9.815082456E0
6.737409750E0,2.956352234E-1,9.827363892E0,2.561174011E-1,9.835145010E0
6.747346750E0,3.453318787E-1,9.834399261E0,2.507286072E-1,9.843654188E0
6.757284750E0,3.664379883E-1,9.805509338E0,2.598596191E-1,9.815794273E0
6.767221750E0,3.309617615E-1,9.764644318E0,3.004252625E-1,9.774869292E0
6.777159750E0,2.571652222E-1,9.742939453E0,3.571572876E-1,9.752874677E0
6.787096750E0,2.130070496E-1,9.711355133E0,3.849993896E-1,9.721317557E0
6.797034750E0,2.282752991E-1,9.686656494E0,3.872447205E-1,9.697081113E0
6.806971750E0,2.877017212E-1,9.697883148E0,3.490740967E-1,9.708427399E0
6.816909750E0,3.249742126E-1,9.725126495E0,3.288661194E-1,9.736110441E0
6.826846750E0,3.320095825E-1,9.751471710E0,3.213816833E-1,9.762413486E0
6.836784750E0,3.144960022E-1,9.777517548E0,3.233276367E-1,9.787915911E0
6.846721750E0,2.764750671E-1,9.805509338E0,3.052153015E-1,9.814153465E0
6.856658750E0,2.715353394E-1,9.803563385E0,2.835104370E-1,9.811420114E0
6.866596750E0,2.903961182E-1,9.787247314E0,2.906954956E-1,9.795868709E0
6.876533750E0,2.665956116E-1,9.777218170E0,3.287164307E-1,9.786374347E0
6.886471750E0,2.371069336E-1,9.765093384E0,3.835025024E-1,9.775497054E0
6.896408750E0,2.219883728E-1,9.751322021E0,4.170327759E-1,9.762759668E0
6.906346750E0,2.336640930E-1,9.725425873E0,3.879931641E-1,9.735966619E0
6.916283750E0,2.326162720E-1,9.713600464E0,3.221301270E-1,9.721723722E0
6.926221750E0,2.543211365E-1,9.754166107E0,2.782713318E-1,9.761448183E0
6.936158750E0,3.040177917E-1,9.804461517E0,2.574645996E-1,9.812552190E0
6.946096750E0,3.456312561E-1,9.811047821E0,2.838098145E-1,9.821235580E0
6.956033750E0,3.541635132E-1,9.799671478E0,3.345542908E-1,9.811774531E0
6.965971750E0,3.347039795E-1,9.795929260E0,3.592529297E-1,9.808227133E0
6.975908750E0,2.953358459E-1,9.742490387E0,3.608995056E-1,9.753644993E0
6.985845750E0,2.689906311E-1,9.713151398E0,3.448828125E-1,9.722993890E0
6.995783750E0,2.894979858E-1,9.726922760E0,3.113525391E-1,9.736209523E0
7.005720750E0,3.282673645E-1,9.752818909E0,2.823129272E-1,9.762424736E0
7.015658750E0,3.787124634E-1,9.782756653E0,2.716850281E-1,9.793853359E0
7.025595750E0,3.995191956E-1,9.793534241E0,2.995271301E-1,9.806255402E0
7.035533750E0,3.769161987E-1,9.782756653E0,3.610491943E-1,9.796670356E0
7.045470750E0,3.412902832E-1,9.786498871E0,3.984713745E-1,9.800551956E0
7.055408750E0,3.104544067E-1,9.761500854E0,3.691323853E-1,9.773409824E0
7.065345750E0,2.959346008E-1,9.745484161E0,3.104544067E-1,9.754917773E0
7.075283750E0,3.095562744E-1,9.733958130E0,2.721340942E-1,9.742680480E0
7.085220750E0,3.213816833E-1,9.735604706E0,2.683918762E-1,9.744604629E0
7.095158750E0,3.122506714E-1,9.741741943E0,2.824626160E-1,9.750836974E0
7.105095750E0,2.874023438E-1,9.753567352E0,3.002755737E-1,9.762419865E0
7.115033750E0,2.871029663E-1,9.778715057E0,3.297642517E-1,9.788485110E0
7.124970750E0,2.737806702E-1,9.783654785E0,3.620970154E-1,9.794180469E0
7.134907750E0,2.686912537E-1,9.789792023E0,3.430865479E-1,9.799486273E0
7.144845750E0,2.773731995E-1,9.789642334E0,2.954855347E-1,9.798027588E0
7.154782750E0,2.779719543E-1,9.772877197E0,2.721340942E-1,9.780616243E0
7.164720750E0,2.887495422E-1,9.758806458E0,2.607577515E-1,9.766558984E0
7.174657750E0,2.799179077E-1,9.773176575E0,2.513273621E-1,9.780414093E0
7.184595750E0,2.535726929E-1,9.784103851E0,2.625540161E-1,9.790910167E0
7.194532750E0,2.547702026E-1,9.760003967E0,2.803669739E-1,9.767353323E0
7.204470750E0,2.748284912E-1,9.750124512E0,2.983296204E-1,9.758558257E0
7.214407750E0,2.897973633E-1,9.735904083E0,2.769241333E-1,9.744151980E0
7.224345750E0,3.095562744E-1,9.721983032E0,2.650987244E-1,9.730521903E0
7.234282750E0,3.215313721E-1,9.743837585E0,2.579136658E-1,9.752552116E0
7.244220750E0,3.140469360E-1,9.754315796E0,2.751278687E-1,9.763247281E0
7.254157750E0,2.918930054E-1,9.748927002E0,3.013233948E-1,9.757949324E0
7.264095750E0,2.513273621E-1,9.754914551E0,3.185375977E-1,9.763349299E0
7.274032750E0,2.272274780E-1,9.755064240E0,3.306623840E-1,9.763311337E0
7.283969750E0,2.237846375E-1,9.760902100E0,3.303630066E-1,9.769054667E0
7.293907750E0,2.555186462E-1,9.748627625E0,2.963836670E-1,9.756478546E0
7.303844750E0,2.942880249E-1,9.756860504E0,2.519261169E-1,9.764548075E0
7.313782750E0,3.230282593E-1,9.757608948E0,2.161505127E-1,9.765346931E0
7.323719750E0,3.541635132E-1,9.765841827E0,2.206411743E-1,9.774752218E0
7.333657750E0,3.532653809E-1,9.781259766E0,2.499801636E-1,9.790828827E0
7.343594750E0,3.516188049E-1,9.759255524E0,2.841091919E-1,9.769719658E0
7.353532750E0,3.324586487E-1,9.745184784E0,3.418890381E-1,9.756845973E0
7.363469750E0,2.894979858E-1,9.773326263E0,4.098477173E-1,9.786198981E0
7.373407750E0,2.475851440E-1,9.796977081E0,4.303550720E-1,9.809549624E0
7.383344750E0,2.570155334E-1,9.798623657E0,4.137396240E-1,9.810721841E0
7.393282750E0,2.781216431E-1,9.768386536E0,3.082090759E-1,9.777204099E0
7.403219750E0,3.141966248E-1,9.775870972E0,1.975891113E-1,9.782914404E0
7.413157750E0,3.272195435E-1,9.803713074E0,1.440005493E-1,9.810229295E0
7.423094750E0,3.432362366E-1,9.803413696E0,1.636097717E-1,9.810784850E0
7.433032750E0,3.526666260E-1,9.784403229E0,2.165995789E-1,9.793152489E0
7.442969750E0,3.430865479E-1,9.752519531E0,2.752775574E-1,9.762434293E0
7.452906750E0,3.338058472E-1,9.723928986E0,3.215313721E-1,9.734968088E0
7.462844750E0,3.472778320E-1,9.717043304E0,3.649411011E-1,9.730093241E0
7.472781750E0,3.740721130E-1,9.720935211E0,3.812571716E-1,9.735597997E0
7.482719750E0,3.942800903E-1,9.743238831E0,3.685336304E-1,9.758174867E0
7.492656750E0,3.799099731E-1,9.784552917E0,3.490740967E-1,9.798145748E0
7.502594750E0,3.541635132E-1,9.808952179E0,3.279679871E-1,9.820821638E0
7.512531750E0,3.116519165E-1,9.816137238E0,2.809657288E-1,9.825101471E0
7.522469750E0,2.862048340E-1,9.809850311E0,2.592608643E-1,9.817448372E0
7.532406750E0,3.038681030E-1,9.820627899E0,2.625540161E-1,9.828835270E0
7.542344750E0,3.562591553E-1,9.801916809E0,2.731819153E-1,9.812192521E0
7.552281750E0,3.564088440E-1,9.753118286E0,3.156935120E-1,9.764732764E0
7.562219750E0,3.242257690E-1,9.724827118E0,4.096980286E-1,9.738851950E0
7.572156750E0,2.676434326E-1,9.695488129E0,4.839436340E-1,9.711247320E0
7.582094750E0,2.396516418E-1,9.691296844E0,4.818479919E-1,9.706227121E0
7.592031750E0,2.472857666E-1,9.709409180E0,4.388873291E-1,9.722468769E0
7.601969750E0,2.616558838E-1,9.734556885E0,4.031117249E-1,9.746412705E0
7.611906750E0,3.038681030E-1,9.749076691E0,3.858975220E-1,9.761441955E0
7.621843750E0,3.348536682E-1,9.745633850E0,3.727249146E-1,9.758505520E0
7.631781750E0,3.186872864E-1,9.762548676E0,4.290078735E-1,9.777165539E0
7.641718750E0,2.713856506E-1,9.797126770E0,4.800517273E-1,9.812634345E0
7.651656750E0,2.433938599E-1,9.832602997E0,5.128335571E-1,9.848975608E0
7.661593750E0,2.438429260E-1,9.875563660E0,4.785548401E-1,9.890158326E0
7.671531750E0,2.767744446E-1,9.888885956E0,4.391867065E-1,9.902502436E0
7.681468750E0,2.992277527E-1,9.824220428E0,3.887416077E-1,9.836460965E0
7.691406750E0,2.778222656E-1,9.745035095E0,3.362008667E-1,9.754789861E0
7.701343750E0,2.128573608E-1,9.690398712E0,2.826123047E-1,9.696855427E0
7.711281750E0,1.387614441E-1,9.679920502E0,3.011737061E-1,9.685598653E0
7.721218750E0,1.158590698E-1,9.709409180E0,3.486250305E-1,9.716356794E0
7.731156750E0,1.249900818E-1,9.746232605E0,4.062551880E-1,9.755496696E0
7.741094000E0,1.682501221E-1,9.788295135E0,4.201762390E-1,9.798753892E0
7.751032000E0,2.188449097E-1,9.818831635E0,3.945794678E-1,9.829193289E0
7.760969000E0,2.538720703E-1,9.852511597E0,3.580554199E-1,9.862283685E0
7.770907000E0,2.921923828E-1,9.870174866E0,3.288661194E-1,9.879973745E0
7.780844000E0,3.384461975E-1,9.851912842E0,3.279679871E-1,9.863178771E0
7.790782000E0,3.788621521E-1,9.839338989E0,3.195854187E-1,9.851815219E0
7.800719000E0,4.085005188E-1,9.817185059E0,3.378474426E-1,9.831486970E0
7.810656000E0,4.583468628E-1,9.771829376E0,3.514691162E-1,9.788884602E0
7.820594000E0,5.126838684E-1,9.710606689E0,3.766168213E-1,9.731421646E0
7.830531000E0,5.285508728E-1,9.663903809E0,4.216731262E-1,9.687528636E0
7.840469000E0,5.044509888E-1,9.659862213E0,4.885839844E-1,9.685356116E0
7.850406000E0,4.140390015E-1,9.694589996E0,5.551954651E-1,9.719297582E0
7.860344000E0,2.888992310E-1,9.720635834E0,5.947132874E-1,9.743095385E0
7.870281000E0,2.273771667E-1,9.762548676E0,5.891748047E-1,9.782953745E0
7.880219000E0,2.067201233E-1,9.764644318E0,5.195695496E-1,9.780642329E0
7.890156000E0,2.746788025E-1,9.765692139E0,4.264631653E-1,9.778857920E0
7.900094000E0,4.276606750E-1,9.776619415E0,3.623963928E-1,9.792676447E0
7.910031000E0,5.486091614E-1,9.788744202E0,3.529660034E-1,9.810457179E0
7.919969000E0,6.084846497E-1,9.820029144E0,4.056564331E-1,9.847222101E0
7.929906000E0,6.236032104E-1,9.839488678E0,4.682263184E-1,9.870342157E0
7.939844000E0,5.060975647E-1,9.821675720E0,5.312452698E-1,9.849044128E0
7.949781000E0,4.082011414E-1,9.800569611E0,5.834866333E-1,9.826405727E0
7.959719000E0,3.695814514E-1,9.775870972E0,6.210585022E-1,9.802548514E0
7.969656000E0,3.793112183E-1,9.743089142E0,5.869294739E-1,9.768119022E0
7.979594000E0,3.995191956E-1,9.721833344E0,5.352868652E-1,9.744751981E0
7.989531000E0,4.287084961E-1,9.721983032E0,5.010081482E-1,9.744319074E0
7.999469000E0,4.104464722E-1,9.702523499E0,4.758604431E-1,9.722853064E0
8.009406000E0,3.585044861E-1,9.695787506E0,4.828958130E-1,9.714422741E0
8.019343000E0,3.103047180E-1,9.754465485E0,5.439688110E-1,9.774547968E0
8.029281000E0,2.435435486E-1,9.811646576E0,5.848338318E-1,9.832077736E0
8.039218000E0,1.802252197E-1,9.838590546E0,5.887257385E-1,9.857836631E0
8.049156000E0,1.351689148E-1,9.829459534E0,5.854325867E-1,9.847805678E0
8.059093000E0,6.346801758E-2,9.797725525E0,6.526428223E-1,9.819643390E0
8.069031000E0,-1.332229614E-2,9.774224396E0,7.846682739E-1,9.805679187E0
8.078968000E0,-1.249900818E-1,9.777367859E0,9.315129089E-1,9.822436616E0
8.088906000E0,-2.531236267E-1,9.784103851E0,1.030457153E0,9.841473553E0
8.098843000E0,-3.082090759E-1,9.752369843E0,1.051263885E0,9.813708073E0
8.108781000E0,-3.186872864E-1,9.652228088E0,1.011147308E0,9.710277418E0
8.118718000E0,-3.574566650E-1,9.526339874E0,9.545649719E-1,9.580716098E0
8.128656000E0,-3.989204407E-1,9.433383179E0,9.395960999E-1,9.488450693E0
8.138593000E0,-4.143383789E-1,9.427245941E0,8.990304565E-1,9.479076858E0
8.148531000E0,-4.177812195E-1,9.481882324E0,8.457412720E-1,9.528688884E0
8.158468000E0,-4.092489624E-1,9.511820068E0,7.894583130E-1,9.553295251E0
8.168406000E0,-3.719764709E-1,9.551637268E0,7.372169495E-1,9.587263938E0
8.178343000E0,-2.363584900E-1,9.578281860E0,7.110214233E-1,9.607543921E0
8.188281000E0,-2.694396973E-2,9.564660187E0,7.366181946E-1,9.593021257E0
8.198218000E0,1.552272034E-1,9.446406097E0,8.649014282E-1,9.487188104E0
8.208156000E0,2.516267395E-1,9.369915161E0,1.048419800E0,9.431744813E0
8.218093000E0,2.067201233E-1,9.414971466E0,1.221010895E0,9.496067003E0
8.228031000E0,8.202941895E-2,9.530830536E0,1.366957397E0,9.628708743E0
8.237968000E0,6.496490479E-2,9.626481628E0,1.492546234E0,9.741717674E0
8.247905000E0,1.422042847E-1,9.471404114E0,1.621428223E0,9.610241799E0
8.257843000E0,2.642005920E-1,9.138496399E0,1.747466125E0,9.307822315E0
8.267780000E0,2.118095398E-1,8.928183746E0,1.944157104E0,9.139861877E0
8.277718000E0,2.993774414E-2,8.755892029E0,2.013912048E0,8.984563608E0
8.287655000E0,-2.835104370E-1,8.623118134E0,2.066003723E0,8.871691828E0
8.297593000E0,-7.771838379E-1,8.488398285E0,2.170935516E0,8.796015074E0
8.307530000E0,-1.268013153E0,8.427924042E0,2.393971710E0,8.852618910E0
8.317468000E0,-1.731000366E0,8.529862061E0,2.644550629E0,9.096623388E0
8.327405000E0,-2.114203491E0,8.814420319E0,2.895578613E0,9.515683762E0
8.337343000E0,-2.500101013E0,9.335786133E0,3.014880524E0,1.012407588E1
8.347280000E0,-2.907553711E0,9.978100433E0,2.868784332E0,1.078175683E1
8.357218000E0,-2.894231415E0,1.070109695E1,2.719544678E0,1.141428818E1
8.367155000E0,-2.413431244E0,1.124536514E1,2.615361328E0,1.179504143E1
8.377093000E0,-2.077529755E0,1.160267212E1,2.487976227E0,1.204691479E1
8.387030000E0,-1.801803131E0,1.171329208E1,2.421963501E0,1.209601642E1
8.396968000E0,-1.676363983E0,1.144235550E1,2.443668365E0,1.181986509E1
8.406905000E0,-1.626218262E0,1.090422455E1,2.495610352E0,1.130375026E1
8.416843000E0,-1.529070282E0,1.034334091E1,2.613714752E0,1.077748867E1
8.426780000E0,-1.395697632E0,9.772727509E0,2.777174835E0,1.025509019E1
8.436718000E0,-1.424587555E0,9.192534027E0,2.906056824E0,9.745629677E0
8.446655000E0,-1.556912384E0,8.710985413E0,2.892884216E0,9.309888405E0
8.456593000E0,-1.555864563E0,8.354127502E0,2.769091644E0,8.937562833E0
8.466530000E0,-1.283580780E0,8.200546875E0,2.699486389E0,8.728331767E0
8.476467000E0,-9.388476562E-1,8.262518005E0,2.765199738E0,8.763387946E0
8.486405000E0,-6.578819275E-1,8.405919800E0,2.885848846E0,8.911813501E0
8.496342000E0,-4.769082642E-1,8.495283966E0,2.956202545E0,9.007575958E0
8.506280000E0,-4.417314148E-1,8.527167664E0,2.928210754E0,9.026745439E0
8.516217000E0,-5.484594727E-1,8.533903656E0,2.848276978E0,9.013379008E0
8.526155000E0,-7.494914246E-1,8.512647858E0,2.773432617E0,8.984366390E0
8.536092000E0,-9.949809265E-1,8.560099182E0,2.735261993E0,9.041401618E0
8.546030000E0,-1.152154083E0,8.747210083E0,2.686463470E0,9.222701841E0
8.555967000E0,-1.260379028E0,8.927285614E0,2.727328491E0,9.419304880E0
8.565905000E0,-1.369951172E0,8.977281647E0,2.862796783E0,9.521762305E0
8.575842000E0,-1.482068024E0,8.918154602E0,3.064128113E0,9.545621416E0
8.585780000E0,-1.650767212E0,8.815318451E0,3.287613373E0,9.552134498E0
8.595717000E0,-1.818119202E0,8.786428528E0,3.469185791E0,9.619882211E0
8.605655000E0,-1.936822357E0,8.865763550E0,3.619024200E0,9.769871050E0
8.615592000E0,-1.977537689E0,8.957073669E0,3.722010040E0,9.899150609E0
8.625530000E0,-2.040107574E0,8.884474640E0,3.753744049E0,9.858322521E0
8.635467000E0,-2.128573608E0,8.844956818E0,3.699407043E0,9.820880774E0
8.645405000E0,-2.240690460E0,8.828940125E0,3.659739532E0,9.816545773E0
8.655342000E0,-2.204914856E0,8.693920898E0,3.636837158E0,9.678455178E0
8.665280000E0,-2.027234344E0,8.532706146E0,3.518433380E0,9.449662783E0
8.675217000E0,-1.842368774E0,8.334967346E0,3.430566101E0,9.199716688E0
8.685155000E0,-1.733545074E0,8.171656952E0,3.348386993E0,8.999602842E0
8.695092000E0,-1.715582428E0,8.113877106E0,3.300935669E0,8.926051817E0
8.705030000E0,-1.774110718E0,8.002359009E0,3.400628357E0,8.874091039E0
8.714967000E0,-2.010020142E0,7.819738770E0,3.501817932E0,8.800637717E0
8.724905000E0,-2.259401550E0,7.773784332E0,3.573518829E0,8.849104759E0
8.734842000E0,-2.464175720E0,7.962392120E0,3.719914398E0,9.127410004E0
8.744779875E0,-2.609972534E0,8.287366333E0,3.850742340E0,9.503715796E0
8.754716875E0,-2.567910004E0,8.641080780E0,3.895499268E0,9.820252205E0
8.764654875E0,-2.447260895E0,8.831035767E0,3.941154327E0,9.975418589E0
8.774591875E0,-2.283052368E0,8.870104523E0,4.004322968E0,9.996283549E0
8.784528875E0,-2.175725555E0,8.837771759E0,4.074377289E0,9.971987848E0
8.794466875E0,-2.214644623E0,8.982221375E0,4.037404175E0,1.009383892E1
8.804403875E0,-2.343975677E0,9.181157684E0,3.953578491E0,1.026735902E1
8.814341875E0,-2.577789459E0,9.236093445E0,3.982917480E0,1.038335458E1
8.824278875E0,-2.893033905E0,9.374705200E0,4.136348419E0,1.064725885E1
8.834216875E0,-3.190465393E0,9.636361084E0,4.394262085E0,1.106110590E1
8.844153875E0,-3.386407928E0,9.970615997E0,4.606071625E0,1.149333885E1
8.854091875E0,-3.506158905E0,1.027837601E1,4.733905792E0,1.184685729E1
8.864028875E0,-3.612437897E0,1.041144928E1,4.812043304E0,1.202512971E1
8.873966875E0,-3.680246887E0,1.039663010E1,4.779710541E0,1.201997368E1
8.883903875E0,-3.624113617E0,1.040022263E1,4.589456177E0,1.193155221E1
8.893841875E0,-3.303480377E0,1.062161224E1,4.238436127E0,1.190361164E1
8.903778875E0,-2.701881409E0,1.102023331E1,3.930676117E0,1.200816056E1
8.913716875E0,-2.029479675E0,1.132963989E1,3.739523621E0,1.210221322E1
8.923653875E0,-1.399290161E0,1.142828476E1,3.657643890E0,1.208064834E1
8.933591875E0,-8.774752808E-1,1.147828079E1,3.628005524E0,1.206993442E1
8.943528875E0,-5.566923523E-1,1.155641830E1,3.604354706E0,1.211825413E1
8.953466875E0,-3.240760803E-1,1.168021088E1,3.805985413E0,1.228893309E1
8.963403875E0,-1.856140137E-1,1.206027054E1,4.262685699E0,1.279277403E1
8.973341875E0,-2.481838989E-1,1.260408966E1,4.593348083E0,1.341728430E1
8.983278875E0,-5.186714172E-1,1.290017395E1,4.486170959E0,1.366781760E1
8.993216875E0,-1.132395172E0,1.256487122E1,3.895798645E0,1.320361900E1
9.003153875E0,-1.841620331E0,1.144699585E1,2.926264801E0,1.195777175E1
9.013091875E0,-2.009870453E0,1.013617172E1,1.566642151E0,1.045159911E1
9.023028875E0,-1.569336548E0,9.010512543E0,1.763333130E-1,9.147854771E0
9.032966875E0,-1.049317932E0,8.034392395E0,-7.894583130E-1,8.140993410E0
9.042903875E0,-7.677534485E-1,7.418722687E0,-1.356928253E0,7.580774759E0
9.052841875E0,-7.228468323E-1,7.309000854E0,-1.451082458E0,7.486630840E0
9.062778875E0,-7.975415039E-1,7.551945648E0,-1.213077393E0,7.690221862E0
9.072716875E0,-8.448431396E-1,7.975714417E0,-9.243278503E-1,8.073423212E0
9.082653875E0,-6.794371033E-1,8.385412445E0,-6.867718506E-1,8.440878641E0
9.092591875E0,-3.379971313E-1,8.737330627E0,-5.355862427E-1,8.760253488E0
9.102528875E0,5.822891235E-2,8.983418884E0,-3.424877930E-1,8.990133667E0
9.112466875E0,4.659809875E-1,9.218729553E0,-5.568420410E-2,9.230667017E0
9.122403875E0,8.674461365E-1,9.371262360E0,1.460961914E-1,9.412457974E0
9.132341875E0,1.364712067E0,9.224118347E0,4.306544495E-1,9.334466324E0
9.142278875E0,1.575623474E0,8.968300323E0,6.822811890E-1,9.131183255E0
9.152216875E0,1.508562927E0,8.907676392E0,9.180409241E-1,9.081038484E0
9.162153875E0,1.219064941E0,8.836723938E0,7.023394775E-1,8.948021571E0
9.172091875E0,7.557783508E-1,8.850345612E0,1.437011719E-1,8.883719288E0
9.182028875E0,8.526269531E-1,8.863667908E0,-8.173004150E-2,8.904957119E0
9.191966875E0,1.060245209E0,8.929530945E0,-3.607498169E-2,8.992326963E0
9.201903875E0,1.307530975E0,9.109905853E0,1.612147522E-1,9.204673384E0
9.211841875E0,1.672921143E0,9.183403015E0,4.622387695E-1,9.345973506E0
9.221778875E0,2.191891937E0,9.173224182E0,9.391470337E-1,9.478102622E0
9.231716875E0,2.276166687E0,9.549242249E0,1.222058716E0,9.892542131E0
9.241653875E0,2.218087463E0,9.734107819E0,1.216819611E0,1.005750551E1
9.251591875E0,2.096689911E0,9.719288635E0,1.140178986E0,1.000803119E1
9.261528875E0,1.778302002E0,9.585317230E0,7.548802185E-1,9.778062618E0
9.271466875E0,1.284927979E0,9.295370178E0,1.686991882E-1,9.385276026E0
9.281403875E0,6.741979980E-1,9.029972076E0,-2.899470520E-1,9.059746571E0
9.291340875E0,2.157014465E-1,8.878337402E0,-4.146377563E-1,8.890631396E0
9.301278875E0,-1.209484863E-1,8.930129700E0,-1.863624573E-1,8.932892922E0
9.311216875E0,-2.817141724E-1,9.176367645E0,2.900967407E-1,9.185273113E0
9.321153875E0,-1.701960754E-1,9.419013062E0,7.191046143E-1,9.447956668E0
9.331091875E0,-2.245330811E-3,9.592951355E0,9.476792908E-1,9.639648167E0
9.341028875E0,2.815644836E-1,9.728419647E0,9.398954773E-1,9.777772287E0
9.350965875E0,6.650669861E-1,9.729317780E0,7.650590515E-1,9.781986194E0
9.360903875E0,9.433383179E-1,9.540410614E0,6.722520447E-1,9.610475778E0
9.370840875E0,7.926017761E-1,9.552685089E0,7.830216980E-1,9.617439002E0
9.380778875E0,3.686833191E-1,9.657317505E0,9.907896423E-1,9.715007612E0
9.390715875E0,5.987548828E-2,9.748927002E0,9.997709656E-1,9.800240035E0
9.400653875E0,-2.939886475E-1,9.855355682E0,1.034498749E0,9.913861640E0
9.410591875E0,-5.487588501E-1,9.962083740E0,1.033301239E0,1.003055134E1
9.420528875E0,-7.593708801E-1,1.001193008E1,9.360035706E-1,1.008421989E1
9.430465875E0,-9.723779297E-1,1.006402176E1,8.720864868E-1,1.014842784E1
9.440403875E0,-1.142274628E0,1.004111938E1,8.954379272E-1,1.014547579E1
9.450340875E0,-1.233135681E0,9.911938019E0,9.595046997E-1,1.003433048E1
9.460278875E0,-1.271605682E0,9.632469177E0,1.051263885E0,9.772747782E0
9.470215875E0,-1.201251984E0,9.282496948E0,1.060694275E0,9.419810416E0
9.480153875E0,-1.039288788E0,8.889264679E0,1.158291321E0,9.024454914E0
9.490090875E0,-7.629634094E-1,8.536598053E0,1.307680664E0,8.669812466E0
9.500028875E0,-4.863386536E-1,8.266409912E0,1.416803741E0,8.401035113E0
9.509965875E0,-2.372566223E-1,8.086933136E0,1.467847595E0,8.222490791E0
9.519903875E0,-1.032852173E-2,7.934250641E0,1.487307129E0,8.072454547E0
9.529840875E0,2.249821472E-1,7.911198578E0,1.797013092E0,8.115844747E0
9.539778875E0,5.197192383E-1,8.008645935E0,2.276316376E0,8.342070129E0
9.549715875E0,7.093748474E-1,8.141569519E0,2.529440002E0,8.554906992E0
9.559653875E0,7.426057434E-1,8.403973846E0,2.368973694E0,8.763006109E0
9.569590875E0,7.556286621E-1,8.745713196E0,2.057770844E0,9.016257251E0
9.579528875E0,5.465135193E-1,9.110504608E0,1.800755310E0,9.302832414E0
9.589465875E0,1.621128845E-1,9.481433258E0,1.650916901E0,9.625454993E0
9.599403875E0,-3.074606323E-1,9.767338715E0,1.538350983E0,9.892520475E0
9.609340875E0,-8.146060181E-1,1.008557693E1,1.481469269E0,1.022629925E1
9.619278875E0,-1.141526184E0,1.066517166E1,1.522334290E0,1.083358068E1
9.629215875E0,-1.233135681E0,1.118593872E1,1.617835693E0,1.136939932E1
9.639153875E0,-9.433383179E-1,1.136122421E1,2.033221893E0,1.158021131E1
9.649090875E0,-4.236190796E-2,1.087817871E1,2.545307007E0,1.117207028E1
9.659028875E0,6.182144165E-1,1.009380981E1,2.912044373E0,1.052364899E1
9.668965875E0,5.189707947E-1,1.005773483E1,3.180436249E0,1.056136996E1
9.678903875E0,8.472381592E-2,1.053075119E1,3.273243256E0,1.102805605E1
9.688840875E0,-2.091151428E-1,1.099942657E1,3.094814301E0,1.142842901E1
9.698778875E0,-4.858895874E-1,1.140942398E1,1.984872437E0,1.159097765E1
9.708715875E0,-1.079255676E0,1.176583282E1,4.617897034E-1,1.182424901E1
9.718653875E0,-1.730102234E0,1.233360214E1,-7.637118530E-1,1.247775025E1
9.728590875E0,-2.021097107E0,1.271321274E1,-1.810036011E0,1.299949391E1
9.738528625E0,-1.942959595E0,1.247984802E1,-2.453847198E0,1.286635398E1
9.748465625E0,-1.038540344E0,1.197434921E1,-2.669848022E0,1.231225786E1
9.758403625E0,2.769241333E-1,1.144534927E1,-2.544408875E0,1.172803153E1
9.768340625E0,9.813592529E-1,1.081441132E1,-2.502496033E0,1.114347542E1
9.778278625E0,1.399739227E0,1.009485764E1,-2.513423309E0,1.049679557E1
9.788215625E0,1.640139313E0,9.504784698E0,-2.198029175E0,9.892538672E0
9.798153625E0,1.769320679E0,9.064400482E0,-1.803898773E0,9.409989508E0
9.808090625E0,1.884880371E0,8.746761017E0,-1.597927094E0,9.089112899E0
9.818028625E0,2.243983612E0,8.524922333E0,-1.563798065E0,8.952945192E0
9.827965625E0,2.290087738E0,8.478369141E0,-1.395398254E0,8.892377715E0
9.837903625E0,2.096540222E0,8.482859802E0,-8.128097534E-1,8.775821957E0
9.847841625E0,1.728305969E0,8.800499268E0,5.119354248E-2,8.968748500E0
9.857778625E0,1.631607056E-2,9.433083801E0,1.016835480E0,9.487744232E0
9.867716625E0,-8.602610779E-1,9.940678253E0,1.649569702E0,1.011326918E1
9.877653625E0,-1.451681213E0,1.066397415E1,1.514400787E0,1.086835465E1
9.887591625E0,-2.992876282E0,1.150582352E1,6.571334839E-1,1.190685129E1
9.897528625E0,-4.138593750E0,1.144085861E1,3.981719971E-2,1.216646166E1
9.907466625E0,-5.164111176E0,1.116947296E1,-1.806742859E-1,1.230681980E1
9.917403625E0,-5.497467957E0,1.092473190E1,-6.436614990E-3,1.222996167E1
9.927341625E0,-4.487218781E0,1.049153275E1,4.670288086E-1,1.142039875E1
9.937278625E0,-2.906655579E0,1.003004242E1,8.734336853E-1,1.047918336E1
9.947216625E0,-1.988015900E0,9.770482178E0,1.305135956E0,1.005574011E1
9.957153625E0,-1.338067474E0,9.529932404E0,1.894460449E0,9.808109735E0
9.967091625E0,-5.385800171E-1,9.324409790E0,2.572101288E0,9.687641168E0
9.977028625E0,1.764830017E-1,9.307045898E0,2.910846863E0,9.753218908E0
9.986966625E0,6.789880371E-1,9.427245941E0,3.011287994E0,9.919770470E0
9.996903625E0,9.883946228E-1,9.502988434E0,2.893482971E0,9.982783019E0
1.000684162E1,8.339158630E-1,9.615254974E0,2.486329651E0,9.966462714E0
1.001677862E1,5.295986938E-1,9.608668671E0,2.103575592E0,9.850483169E0
1.002671662E1,2.315684509E-1,9.420659637E0,1.865121460E0,9.606306783E0
1.003665362E1,2.634521484E-2,9.149723053E0,1.694925385E0,9.305423047E0
1.004659162E1,1.466949463E-2,8.834478607E0,1.610201569E0,8.980032102E0
1.005652862E1,1.793270874E-1,8.533454590E0,1.626068573E0,8.688849432E0
1.006646662E1,5.056484985E-1,8.266559601E0,1.667981415E0,8.448304566E0
1.007640362E1,9.430389404E-1,8.081095276E0,1.767374725E0,8.325685360E0
1.008634162E1,1.327289886E0,8.006101227E0,1.952090607E0,8.346856476E0
1.009627862E1,1.420545959E0,8.019872589E0,2.172731781E0,8.429535608E0
1.010621662E1,1.091380463E0,8.055199127E0,2.415526886E0,8.480101086E0
1.011615362E1,5.090913391E-1,8.030650177E0,2.556833038E0,8.443216889E0
1.012609162E1,-2.559677124E-2,7.943681030E0,2.643053741E0,8.371884888E0
1.013602862E1,-5.063969421E-1,7.978109436E0,2.630779266E0,8.415917513E0
1.014596662E1,-9.159452820E-1,7.964338074E0,2.673739929E0,8.450947990E0
1.015590362E1,-1.241967316E0,7.965535583E0,2.776127014E0,8.526377962E0
1.016584162E1,-1.416354675E0,7.997119904E0,2.815644836E0,8.595803811E0
1.017577862E1,-1.347797241E0,7.987090759E0,2.978206787E0,8.630173339E0
1.018571662E1,-1.377136230E0,8.156089325E0,3.229683838E0,8.879704667E0
1.019565362E1,-1.391356659E0,8.227341156E0,3.467988281E0,9.036147330E0
1.020559162E1,-1.422791290E0,8.289312286E0,3.775748291E0,9.219181547E0
1.021552862E1,-1.562301178E0,8.276439056E0,4.018693085E0,9.332208878E0
1.022546662E1,-1.731150055E0,8.053103485E0,4.272415466E0,9.279164303E0
1.023540363E1,-1.974244537E0,7.766449585E0,4.414020996E0,9.148713680E0
1.024534162E1,-2.246079254E0,7.755821686E0,4.474495239E0,9.231400202E0
1.025527863E1,-2.261497192E0,8.426277466E0,4.452041931E0,9.794753638E0
1.026521662E1,-2.387385406E0,9.056317291E0,4.402195587E0,1.034871093E1
1.027515362E1,-3.093317413E0,9.258546753E0,4.387077026E0,1.070213742E1
1.028509163E1,-3.953578491E0,9.427695007E0,4.175267487E0,1.104287438E1
1.029502862E1,-4.351600800E0,9.801767120E0,3.639681244E0,1.132512021E1
1.030496663E1,-3.971990204E0,1.028765671E1,3.094963989E0,1.145388095E1
1.031490362E1,-3.560645599E0,1.044602737E1,3.034938812E0,1.144589615E1
1.032484162E1,-3.637286224E0,1.026355682E1,3.826941833E0,1.154192070E1
1.033477862E1,-3.977678375E0,1.003273682E1,5.441783752E0,1.208680039E1
1.034471662E1,-4.497996368E0,9.504335632E0,6.856940918E0,1.255316717E1
1.035465362E1,-5.269791412E0,8.795709229E0,7.309300232E0,1.259210357E1
1.036459162E1,-6.201304321E0,8.354426880E0,7.032226410E0,1.255805845E1
1.037452862E1,-6.398893433E0,9.038953400E0,6.042933655E0,1.261608350E1
1.038446662E1,-5.428461456E0,1.032627640E1,4.332141266E0,1.244458219E1
1.039440362E1,-3.567830658E0,1.119237534E1,2.257605286E0,1.196225158E1
1.040434162E1,-1.581311646E0,1.189187073E1,6.894662476E-1,1.201634302E1
1.041427862E1,1.892065430E-1,1.306617874E1,-3.712280273E-2,1.306760131E1
1.042421662E1,2.393822021E0,1.505479340E1,-4.176315308E-1,1.524964276E1
1.043415362E1,4.821324005E0,1.718291794E1,-1.178349609E0,1.788536670E1
1.044409162E1,6.577172699E0,1.819092178E1,-2.777773590E0,1.954187458E1
1.045402862E1,6.714287567E0,1.705852661E1,-3.738625488E0,1.870968488E1
1.046396662E1,3.690126343E0,1.365819763E1,-2.644850006E0,1.439300617E1
1.047390362E1,8.580157471E-1,1.085901855E1,-1.128503265E0,1.095116408E1
1.048384162E1,-6.316864014E-2,9.018146667E0,-1.916015625E-1,9.020403026E0
1.049377962E1,-3.824546814E-1,7.612270203E0,2.369572449E-1,7.625554272E0
1.050371662E1,-4.782554626E-1,6.528972931E0,2.891986084E-1,6.552850651E0
1.051365462E1,-5.643264771E-1,5.880222015E0,3.519181824E-1,5.917712542E0
1.052359162E1,-4.553530884E-1,5.946384430E0,6.586303711E-1,6.000052349E0
1.053352962E1,1.016386414E-1,6.314319305E0,1.118025055E0,6.413340684E0
1.054346662E1,1.110839996E0,7.298372955E0,1.246308289E0,7.486888382E0
1.055340462E1,1.910327454E0,8.771309967E0,6.475534058E-1,9.000253048E0
1.056334162E1,2.153571625E0,1.016416351E1,1.005908203E-1,1.039029399E1
1.057327962E1,2.316283264E0,1.104972198E1,8.681945801E-2,1.129021974E1
1.058321662E1,2.623444519E0,1.120075790E1,3.040177917E-1,1.150790448E1
1.059315462E1,2.935844879E0,1.064571213E1,4.713697815E-1,1.105316974E1
1.060309162E1,3.105142822E0,9.543254700E0,4.674778748E-1,1.004659931E1
1.061302962E1,3.837120667E0,8.612190857E0,3.047662354E-1,9.433250173E0
1.062296662E1,4.486170959E0,8.030650177E0,1.451980591E-2,9.198765296E0
1.063290462E1,4.431085510E0,7.691605225E0,-7.006929016E-1,8.904284377E0
1.064284162E1,4.901856537E0,7.732470245E0,-1.117426300E0,9.223228022E0
1.065277962E1,5.413791962E0,7.897726593E0,-8.422984314E-1,9.612111911E0
1.066271662E1,5.124144287E0,8.056396637E0,-1.941462708E-1,9.549872995E0
1.067265462E1,3.616778870E0,8.185877380E0,5.566923523E-1,8.966581525E0
1.068259162E1,2.175276489E0,8.401878204E0,1.432221680E0,8.796285813E0
1.069252962E1,1.513203278E0,8.663384399E0,2.423460388E0,9.122344746E0
1.070246662E1,1.329385529E0,9.073830872E0,3.175945587E0,9.705065839E0
1.071240462E1,1.233135681E0,9.454339600E0,3.035387878E0,1.000593526E1
1.072234162E1,6.438111877E-1,9.517807617E0,2.382745056E0,9.832630812E0
1.073227962E1,-4.391867065E-1,9.697733459E0,2.473157043E0,1.001775549E1
1.074221650E1,-3.483256531E-1,9.776170349E0,7.691006470E-1,9.812560994E0
1.075215450E1,-1.438807983E0,9.782008209E0,6.117778015E-1,9.906166014E0
1.076209150E1,-2.550845490E0,1.027403503E1,1.190624084E0,1.065270831E1
1.077202950E1,-2.924318848E0,1.063448547E1,3.873944092E-1,1.103603173E1
1.078196650E1,-3.613336029E0,1.071247330E1,-6.391708374E-2,1.130563429E1
1.079190450E1,-4.076622620E0,1.064032333E1,-2.094145203E-1,1.139645502E1
1.080184150E1,-3.955524445E0,1.046503784E1,-8.936416626E-2,1.118799252E1
1.081177950E1,-3.221450958E0,1.025083328E1,2.526745605E-1,1.074807767E1
1.082171650E1,-2.156565399E0,9.868378601E0,5.571414185E-1,1.011662380E1
1.083165450E1,-1.348994751E0,9.311237183E0,8.367599487E-1,9.445585843E0
1.084159150E1,-8.469387817E-1,8.767567749E0,1.126257935E0,8.880090454E0
1.085152950E1,-4.602928162E-1,8.364156647E0,1.295106812E0,8.476336918E0
1.086146650E1,-2.037263489E-1,8.078550568E0,1.432670746E0,8.207132822E0
1.087140450E1,-1.743873596E-1,7.911497955E0,1.630708923E0,8.079691977E0
1.088134150E1,-3.459306335E-1,7.905360718E0,1.693428497E0,8.092100849E0
1.089127950E1,-5.096900940E-1,8.033344574E0,1.600172424E0,8.207006813E0
1.090121650E1,-6.297404480E-1,8.234675903E0,1.575773163E0,8.407706068E0
1.091115450E1,-6.524931335E-1,8.347990265E0,1.553170166E0,8.516280075E0
1.092109250E1,-6.978488159E-1,8.553662567E0,1.710493011E0,8.750881248E0
1.093102950E1,-7.463479614E-1,8.892108765E0,1.922901306E0,9.128208093E0
1.094096750E1,-3.224295044E-1,9.314380646E0,2.080224152E0,9.549292127E0
1.095090450E1,7.424560547E-2,9.683513031E0,2.333796844E0,9.961051387E0
1.096084250E1,1.046324158E-1,9.997709656E0,2.797532501E0,1.038226056E1
1.097077950E1,2.439926147E-1,1.023526566E1,2.885100403E0,1.063691684E1
1.098071750E1,2.354603577E-1,1.048090485E1,2.754871216E0,1.083947062E1
1.099065450E1,6.840774536E-2,1.061742096E1,2.563269653E0,1.092266720E1
1.100059250E1,-3.128494263E-1,1.075393707E1,2.137105865E0,1.096869449E1
1.101052950E1,-5.833369446E-1,1.089539291E1,1.644929352E0,1.103429478E1
1.102046750E1,-6.445596313E-1,1.096380066E1,1.371597748E0,1.106804691E1
1.103040450E1,-1.013392639E0,1.095661560E1,1.369352417E0,1.108826028E1
1.104034250E1,-1.690883789E0,1.088880661E1,1.904639282E0,1.118270308E1
1.105027950E1,-2.182461548E0,1.054422318E1,2.429298248E0,1.103835453E1
1.106021750E1,-1.990410919E0,1.024918671E1,2.465223541E0,1.072776262E1
1.107015450E1,-1.516646118E0,1.026939468E1,2.292033691E0,1.063080905E1
1.108009250E1,-1.394500122E0,1.050889664E1,2.032323761E0,1.079406684E1
1.109002950E1,-1.499581604E0,1.084509750E1,1.513352966E0,1.105238083E1
1.109996750E1,-1.639989624E0,1.125269989E1,6.596781921E-1,1.139069779E1
1.110990450E1,-1.579365692E0,1.177346695E1,-4.049079895E-1,1.188582645E1
1.111984250E1,-1.094972992E0,1.227432541E1,-1.212029572E0,1.238252986E1
1.112977950E1,-4.041595459E-2,1.245649658E1,-1.519639893E0,1.254891413E1
1.113971750E1,6.987469482E-1,1.212373856E1,-1.606908417E0,1.224971177E1
1.114965450E1,1.122964783E0,1.149609375E1,-1.585053864E0,1.165905730E1
1.115959250E1,1.467248840E0,1.079899338E1,-1.692530365E0,1.102885924E1
1.116952950E1,1.691332855E0,1.005324417E1,-2.005080414E0,1.038983506E1
1.117946750E1,1.794618073E0,9.247769165E0,-2.349663849E0,9.708903582E0
1.118940450E1,1.970202942E0,8.467890930E0,-2.601889343E0,9.075059481E0
1.119934250E1,1.936373291E0,7.851622467E0,-2.668201447E0,8.515680586E0
1.120927950E1,1.675615540E0,7.512577515E0,-2.580034790E0,8.118071684E0
1.121921750E1,1.248553619E0,7.502248993E0,-2.033521271E0,7.872600260E0
1.122915450E1,6.180647278E-1,7.770042114E0,-1.112935638E0,7.873638562E0
1.123909250E1,-2.903961182E-1,8.458011475E0,-2.143542480E-1,8.465709406E0
1.124902950E1,-7.107220459E-1,9.388925629E0,7.047344971E-1,9.442123755E0
1.125896750E1,-8.174501038E-1,1.048599426E1,1.801054688E0,1.067089960E1
1.126890450E1,-9.150471497E-1,1.089090225E1,2.369273071E0,1.118313543E1
1.127884250E1,-1.941163330E0,1.182181641E1,2.128872986E0,1.216780828E1
1.128878050E1,-4.171375580E0,1.289807831E1,9.018745422E-1,1.358580789E1
1.129871750E1,-5.705385590E0,1.270063889E1,-2.290237427E-2,1.392329621E1
1.130865550E1,-5.769302673E0,1.198153427E1,1.212478638E-1,1.329874873E1
1.131859250E1,-4.568200378E0,1.112157257E1,6.932084656E-1,1.204318766E1
1.132853050E1,-3.354973297E0,1.043495041E1,1.272503815E0,1.103464099E1
1.133846750E1,-2.693498840E0,9.827663269E0,1.865121460E0,1.035937157E1
1.134840550E1,-2.241139526E0,9.262887726E0,2.162103882E0,9.772332812E0
1.135834250E1,-1.745370483E0,8.797355804E0,2.533780975E0,9.319862301E0
1.136828050E1,-1.271006927E0,8.542735291E0,2.931054840E0,9.120573849E0
1.137821750E1,-6.569837952E-1,8.583151245E0,3.133883057E0,9.160968072E0
1.138815550E1,-1.676513672E-1,8.920998688E0,3.242108002E0,9.493344451E0
1.139809250E1,-3.529660034E-1,9.259893951E0,3.079096985E0,9.764786697E0
1.140803050E1,-8.198451233E-1,9.328750763E0,2.718047791E0,9.751180473E0
1.141796750E1,7.044351196E-1,9.334139557E0,2.992876282E0,9.827497064E0
1.142790550E1,1.417701874E0,9.227561188E0,2.837948456E0,9.757649077E0
1.143784250E1,1.128054199E0,8.848848724E0,1.899400177E0,9.120435903E0
1.144778050E1,1.128652954E0,8.296048279E0,1.188827820E0,8.456452337E0
1.145771750E1,1.169517975E0,7.721393280E0,9.487271118E-1,7.866878009E0
1.146765550E1,1.127754822E0,7.364984436E0,1.161883850E0,7.540875331E0
1.147759250E1,9.421408081E-1,7.206314392E0,1.604663086E0,7.442683658E0
1.148753050E1,6.580316162E-1,7.173233185E0,2.214794312E0,7.536152452E0
1.149746750E1,3.200344849E-1,7.301366730E0,2.804567871E0,7.828025239E0
1.150740550E1,9.490264893E-2,7.502248993E0,3.174299011E0,8.146712262E0
1.151734250E1,-1.869612122E-1,7.606432343E0,3.367846527E0,8.320766654E0
1.152728050E1,-5.423222351E-1,7.585176544E0,3.447031860E0,8.349314059E0
1.153721750E1,-8.741821289E-1,7.487130432E0,3.488944702E0,8.306265806E0
1.154715550E1,-1.276844788E0,7.364984436E0,3.574416962E0,8.285516578E0
1.155709250E1,-1.672472076E0,7.201524353E0,3.675606537E0,8.256464090E0
1.156703050E1,-2.157014465E0,7.029831390E0,3.745361481E0,8.252210213E0
1.157696750E1,-2.612517242E0,7.053332520E0,3.688779144E0,8.377460089E0
1.158690550E1,-2.894081726E0,7.014114075E0,3.726201324E0,8.453288212E0
1.159684250E1,-3.113226013E0,6.691834259E0,3.916455688E0,8.355324477E0
1.160678050E1,-3.545527039E0,7.177125092E0,3.883823547E0,8.897526168E0
1.161671850E1,-3.566483459E0,8.452622681E0,3.511697388E0,9.823372791E0
1.162665550E1,-3.385509796E0,9.398805084E0,3.628903656E0,1.062864786E1
1.163659350E1,-3.526067505E0,9.895771637E0,4.273612976E0,1.134121758E1
1.164653050E1,-3.983815613E0,9.948013000E0,4.836143188E0,1.175678657E1
1.165646850E1,-4.540657654E0,1.041549088E1,4.958738251E0,1.239714109E1
1.166640550E1,-4.867128754E0,1.127380600E1,4.339925079E0,1.302392390E1
1.167634350E1,-4.783153381E0,1.170835236E1,3.585942993E0,1.314621840E1
1.168628050E1,-4.608915710E0,1.148486710E1,4.003873901E0,1.300673989E1
1.169621850E1,-4.734953613E0,1.123997635E1,5.513933716E0,1.338507822E1
1.170615550E1,-5.187312927E0,1.080542999E1,6.800957336E0,1.378109406E1
1.171609350E1,-5.831872559E0,1.014829651E1,7.173981628E0,1.372824359E1
1.172603050E1,-6.294859772E0,9.964179382E0,6.582711182E0,1.349971173E1
1.173596850E1,-5.874084778E0,1.049901718E1,4.451592865E0,1.282773997E1
1.174590567E1,-4.616400146E0,1.140628052E1,1.564247131E0,1.240408218E1
1.175584367E1,-2.578687592E0,1.237551498E1,1.999841309E-1,1.264290293E1
1.176578067E1,-3.079096985E-1,1.406729691E1,4.180805969E-1,1.407687614E1
1.177571867E1,2.373015289E0,1.628194153E1,6.497987366E-1,1.646678657E1
1.178565567E1,5.207969971E0,1.834360428E1,-7.644602966E-1,1.908389815E1
1.179559367E1,7.086563416E0,1.881467468E1,-3.115770721E0,2.034500901E1
1.180553067E1,8.134983215E0,1.706885513E1,-4.272714844E0,1.938504216E1
1.181546867E1,7.403753815E0,1.355715775E1,-2.991678772E0,1.573411067E1
1.182540567E1,3.820056152E0,9.965376892E0,-6.129753113E-1,1.069005633E1
1.183534367E1,5.334906006E-1,8.100554810E0,7.399113464E-1,8.151752526E0
1.184528067E1,-7.156617737E-1,6.862479401E0,6.505471802E-1,6.930296309E0
1.185521867E1,-1.274000702E0,5.964646454E0,2.206411743E-1,6.103176848E0
1.186515567E1,-1.685494995E0,5.348976746E0,2.802172852E-1,5.615244192E0
1.187509367E1,-1.545536041E0,5.200036469E0,5.578898621E-1,5.453466973E0
1.188503067E1,-7.670050049E-1,5.693560181E0,6.962022400E-1,5.787021839E0
1.189496867E1,2.324665833E-1,6.619833984E0,6.245013428E-1,6.653288256E0
1.190490567E1,1.199904785E0,7.798333282E0,2.983296204E-1,7.895744046E0
1.191484367E1,1.504671021E0,9.005872192E0,1.640588379E-1,9.132178498E0
1.192478167E1,1.923050995E0,9.916728058E0,3.598516846E-1,1.010787385E1
1.193471867E1,2.484533386E0,1.030891251E1,7.517367554E-1,1.063069571E1
1.194465667E1,2.906954956E0,1.018122803E1,8.918453979E-1,1.062559078E1
1.195459367E1,3.468587036E0,9.684860229E0,9.054670715E-1,1.032702689E1
1.196453167E1,3.848347321E0,9.161099396E0,6.453080750E-1,9.957506804E0
1.197446867E1,3.970643005E0,8.753497009E0,-5.433700562E-2,9.612110501E0
1.198440667E1,3.778742065E0,8.577912140E0,-6.333329773E-1,9.394710157E0
1.199434367E1,2.841690674E0,8.538544006E0,-6.258485413E-1,9.020733120E0
1.200428167E1,2.025288391E0,8.420589294E0,-1.996847534E-1,8.663024364E0
1.201421867E1,1.649270325E0,8.264613647E0,5.655239868E-1,8.446522878E0
1.202415667E1,1.367556152E0,8.183931427E0,1.478026428E0,8.428019077E0
1.203409367E1,1.308578796E0,8.103548584E0,2.307751007E0,8.526757463E0
1.204403167E1,8.611592102E-1,8.062084808E0,3.311264191E0,8.758040716E0
1.205396867E1,4.204756165E-1,8.397387543E0,3.638034668E0,9.161234280E0
1.206390667E1,7.027885437E-1,9.112600250E0,2.915187836E0,9.593316172E0
1.207384367E1,3.517684937E-1,9.640851746E0,1.718276825E0,9.799093769E0
1.208378167E1,-9.196875000E-1,1.007899063E1,1.206940155E0,1.019257484E1
1.209371867E1,-1.814376984E0,1.058463913E1,9.728269958E-1,1.078299317E1
1.210365667E1,-2.206262054E0,1.073657318E1,2.441423035E-1,1.096363085E1
1.211359367E1,-2.605332184E0,1.063358734E1,-1.393601990E-1,1.094898885E1
1.212353167E1,-2.627486115E0,1.050395691E1,-2.692900085E-1,1.083094230E1
1.213346867E1,-2.235301666E0,1.045620621E1,-1.157093811E-1,1.069309172E1
1.214340667E1,-1.721569977E0,1.042252625E1,4.071533203E-1,1.057159545E1
1.215334367E1,-1.390009460E0,1.011311966E1,7.186555481E-1,1.023346380E1
1.216328167E1,-1.305285645E0,9.612261200E0,7.749385071E-1,9.731385599E0
1.217321867E1,-1.198407898E0,9.109456787E0,9.418414307E-1,9.236094939E0
1.218315667E1,-1.084494781E0,8.678952026E0,1.281485138E0,8.839826999E0
1.219309367E1,-1.015937347E0,8.229287109E0,1.708397369E0,8.465926801E0
1.220303167E1,-8.602610779E-1,7.777526550E0,2.059267731E0,8.091387517E0
1.221296867E1,-6.408174133E-1,7.556136932E0,2.188000031E0,7.892603907E0
1.222290667E1,-5.393284607E-1,7.460186462E0,2.295177155E0,7.823879818E0
1.223284367E1,-3.986210632E-1,7.503446503E0,2.359243927E0,7.875699339E0
1.224278167E1,-5.935157776E-1,7.586523743E0,2.480042725E0,8.003637635E0
1.225271967E1,-7.315287781E-1,7.647896118E0,2.564766541E0,8.099597323E0
1.226265667E1,-5.706134033E-1,7.839647369E0,2.407743073E0,8.220881780E0
1.227259467E1,-3.495231628E-1,8.348289642E0,2.409838715E0,8.696173240E0
1.228253167E1,6.780899048E-2,9.008117523E0,2.404300232E0,9.323703072E0
1.229246967E1,3.794609070E-1,9.821376343E0,2.571801910E0,1.015960575E1
1.230240667E1,6.051914978E-1,1.054048096E1,2.510579224E0,1.085223496E1
1.231234467E1,4.248165894E-1,1.107382187E1,2.135159912E0,1.128578344E1
1.232228167E1,-5.508544922E-2,1.131526978E1,1.674717407E0,1.143866438E1
1.233221967E1,-5.260061646E-1,1.126392654E1,1.504072266E0,1.137606949E1
1.234215667E1,-8.460406494E-1,1.132215546E1,1.699565735E0,1.148022267E1
1.235209467E1,-1.305884399E0,1.129925308E1,1.962718506E0,1.154256116E1
1.236203167E1,-1.607507172E0,1.112097382E1,2.397564240E0,1.148949312E1
1.237196967E1,-1.741179199E0,1.071352112E1,2.533930664E0,1.114594296E1
1.238190667E1,-1.150058441E0,1.053494247E1,2.168989563E0,1.081721605E1
1.239184467E1,-3.522175598E-1,1.061053528E1,1.899400177E0,1.078495420E1
1.240178167E1,-7.334747314E-2,1.089688980E1,1.913470917E0,1.106385819E1
1.241171967E1,-2.553689575E-1,1.148082550E1,1.214723969E0,1.154773232E1
1.242165667E1,-2.525248718E-1,1.213271988E1,-1.348695374E-1,1.213609699E1
1.243159467E1,1.703457642E-1,1.277144165E1,-1.633702698E0,1.287663481E1
1.244153167E1,5.728587341E-1,1.316826645E1,-2.710263977E0,1.345648317E1
1.245146967E1,8.532257080E-1,1.292113037E1,-3.006497955E0,1.329370656E1
1.246140667E1,1.481169891E0,1.239198074E1,-3.064577179E0,1.285094099E1
1.247134467E1,2.144290924E0,1.187959625E1,-2.934647369E0,1.242316167E1
1.248128167E1,2.481240234E0,1.103610031E1,-2.903661804E0,1.167832672E1
1.249121967E1,2.804567871E0,1.010159363E1,-2.626737671E0,1.080775396E1
1.250115667E1,2.825524292E0,9.146429901E0,-2.234702911E0,9.830293208E0
1.251109467E1,2.657872925E0,8.268355865E0,-1.974543915E0,8.906672829E0
1.252103167E1,2.057621155E0,7.546407166E0,-1.624871063E0,7.988884271E0
1.253096967E1,3.814068604E-1,7.302713928E0,-1.380130005E0,7.441764625E0
1.254090767E1,-1.176703033E0,7.594008179E0,-9.042695618E-1,7.737654276E0
1.255084467E1,-1.897903290E0,8.318351898E0,5.688171387E-2,8.532306296E0
1.256078267E1,-2.109712830E0,9.451046448E0,1.293460236E0,9.769657443E0
1.257071967E1,-2.235750732E0,1.046189438E1,2.175126801E0,1.091700471E1
1.258065767E1,-2.274220734E0,1.083012863E1,2.282752991E0,1.129932420E1
1.259059467E1,-2.872227173E0,1.120943985E1,2.318229218E0,1.180150064E1
1.260053267E1,-3.810027008E0,1.135104538E1,1.794169006E0,1.210708798E1
1.261046967E1,-4.113745422E0,1.130733627E1,1.070873108E0,1.207996375E1
1.262040767E1,-3.510649567E0,1.116049164E1,9.054670715E-1,1.173461140E1
1.263034467E1,-2.407144318E0,1.076770844E1,1.315314789E0,1.111161292E1
1.264028267E1,-1.628762970E0,1.005459137E1,1.764979706E0,1.033744793E1
1.265021967E1,-1.296304321E0,9.145082703E0,2.247576141E0,9.506026564E0
1.266015767E1,-1.349144440E0,8.605005798E0,2.628683624E0,9.098147784E0
1.267009467E1,-1.592089233E0,8.314310303E0,2.947221222E0,8.963739000E0
1.268003267E1,-1.955234070E0,8.222700806E0,3.112327881E0,9.006793749E0
1.268996967E1,-1.710493011E0,8.403375092E0,3.250789948E0,9.171157754E0
1.269990767E1,-9.231303406E-1,8.860823822E0,3.412453766E0,9.539979514E0
1.270984467E1,-7.155120850E-1,9.222172394E0,3.060236206E0,9.742970124E0
1.271978267E1,-6.770420837E-1,9.299112396E0,2.590213623E0,9.676832331E0
1.272971967E1,-4.586462402E-1,9.136849823E0,2.164947968E0,9.401030835E0
1.273965837E1,1.496887207E-4,8.868008881E0,1.801204376E0,9.049083862E0
1.274959537E1,6.228547668E-1,8.543932800E0,1.611249390E0,8.716814805E0
1.275953337E1,1.267115021E0,8.203840027E0,1.669927368E0,8.467421631E0
1.276947037E1,1.621727600E0,7.990683289E0,1.982926483E0,8.391246467E0
1.277940837E1,1.603764954E0,7.846533051E0,2.407443695E0,8.362770359E0
1.278934537E1,1.303190002E0,7.677684174E0,2.759661255E0,8.262013598E0
1.279928337E1,7.426057434E-1,7.575596466E0,2.921624451E0,8.153343764E0
1.280922037E1,1.630110168E-1,7.593708801E0,2.990930328E0,8.163127475E0
1.281915837E1,-2.782713318E-1,7.649692383E0,3.007396088E0,8.224333390E0
1.282909637E1,-6.066883850E-1,7.662565613E0,3.018023987E0,8.257811535E0
1.283903337E1,-9.677375793E-1,7.621401215E0,3.188070374E0,8.317816132E0
1.284897137E1,-1.396146698E0,7.489525452E0,3.472628632E0,8.372655893E0
1.285890837E1,-1.721869354E0,7.304659882E0,3.648812256E0,8.344861948E0
1.286884637E1,-1.959275665E0,7.174730072E0,3.708238678E0,8.310628546E0
1.287878337E1,-2.218686218E0,7.156168671E0,3.716471558E0,8.363341403E0
1.288872137E1,-2.532583466E0,7.146289215E0,3.692820740E0,8.433288420E0
1.289865837E1,-2.936593323E0,6.971153412E0,3.719016266E0,8.429213618E0
1.290859637E1,-3.121608582E0,7.702682190E0,3.785478058E0,9.132666488E0
1.291853337E1,-2.784060516E0,9.173373871E0,3.615581360E0,1.024569225E1
1.292847137E1,-2.740650787E0,9.843829651E0,3.442092133E0,1.078239988E1
1.293840837E1,-2.952011261E0,9.893975372E0,3.465892639E0,1.089116757E1
1.294834637E1,-3.154989166E0,9.909692688E0,3.470383301E0,1.096355444E1
1.295828337E1,-3.003653870E0,1.025038422E1,3.322041779E0,1.118607504E1
1.296822137E1,-2.972368927E0,1.056383240E1,3.003504181E0,1.137763461E1
1.297815837E1,-3.649860077E0,1.040950333E1,3.357518005E0,1.153048851E1
1.298809637E1,-4.093387756E0,1.000130219E1,4.352798309E0,1.165026703E1
1.299803337E1,-4.304149475E0,9.497899017E0,5.380411377E0,1.173390877E1
1.300797137E1,-4.731660461E0,8.904981995E0,6.285579071E0,1.188258471E1
1.301790837E1,-5.492677917E0,8.145760803E0,6.920708313E0,1.201745120E1
1.302784637E1,-6.527625732E0,7.417225800E0,6.896009674E0,1.204906991E1
1.303778337E1,-6.913074188E0,7.634573822E0,6.015839996E0,1.192760005E1
1.304772137E1,-5.805527344E0,9.019194489E0,4.284839630E0,1.155031894E1
1.305765837E1,-4.008514252E0,1.048659302E1,2.415676575E0,1.148356708E1
1.306759637E1,-2.144739990E0,1.194036987E1,8.813671875E-1,1.216343498E1
1.307753337E1,-1.004411316E-1,1.407597885E1,-3.480262756E-1,1.408063888E1
1.308747137E1,2.561473389E0,1.735505997E1,-1.335672455E0,1.759384191E1
1.309740937E1,5.852978668E0,2.083786743E1,-3.325634308E0,2.189826299E1
1.310734637E1,8.864566040E0,2.224374390E1,-6.011648712E0,2.468814683E1
1.311728437E1,9.786798248E0,1.944456482E1,-5.673501892E0,2.249580282E1
1.312722137E1,6.329138489E0,1.398871033E1,-2.398612061E0,1.554012067E1
1.313715937E1,2.226470032E0,1.069930069E1,7.435038757E-1,1.095376657E1
1.314709638E1,3.770658875E-1,8.582702179E0,1.976489868E0,8.815410800E0
1.315703437E1,-4.149371338E-1,6.803951111E0,1.617386627E0,7.005844920E0
1.316697138E1,-8.455915833E-1,5.510191498E0,4.971162415E-1,5.596816955E0
1.317690937E1,-1.033450928E0,4.629423065E0,-4.236190796E-2,4.743561243E0
1.318684637E1,-1.008303223E0,4.366270294E0,3.311114502E-1,4.493398098E0
1.319678438E1,-5.225633240E-1,4.831353149E0,6.976991272E-1,4.909361441E0
1.320672137E1,4.806504822E-1,6.187383270E0,8.247848511E-1,6.260591559E0
1.321665938E1,1.092128906E0,8.240364075E0,7.566764832E-1,8.346790098E0
1.322659637E1,1.529070282E0,1.039333694E1,7.547305298E-1,1.053228973E1
1.323653437E1,2.060764618E0,1.193617859E1,9.982740784E-1,1.215383319E1
1.324647137E1,2.738106079E0,1.228195953E1,1.182091827E0,1.263887242E1
1.325640937E1,3.207978973E0,1.142514130E1,1.071621552E0,1.191525726E1
1.326634637E1,3.970044250E0,1.005010071E1,5.459147644E-1,1.081960251E1
1.327628437E1,4.751718750E0,8.901539154E0,-2.315684509E-1,1.009305971E1
1.328622137E1,4.748724976E0,8.330626373E0,-1.095571747E0,9.651424875E0
1.329615937E1,4.486470337E0,8.218060455E0,-1.758393402E0,9.526640598E0
1.330609637E1,4.175866241E0,8.273744659E0,-2.093845825E0,9.501415678E0
1.331603437E1,3.147355042E0,8.302185516E0,-2.038610687E0,9.109778353E0
1.332597137E1,2.650687866E0,8.277337189E0,-1.403631134E0,8.804012577E0
1.333590937E1,2.447111206E0,8.364456024E0,-4.213737488E-1,8.725252642E0
1.334584637E1,1.709145813E0,8.532406769E0,1.215472412E0,8.786382524E0
1.335578437E1,8.641529846E-1,8.681347046E0,2.869233398E0,9.183955967E0
1.336572237E1,4.128414917E-1,8.694220276E0,3.579656067E0,9.411367693E0
1.337565937E1,4.237687683E-1,8.940907288E0,3.548670502E0,9.628731247E0
1.338559737E1,-3.716770935E-1,9.108708344E0,3.128643951E0,9.638211687E0
1.339553437E1,-6.262976074E-1,9.470505981E0,2.367476807E0,9.782007906E0
1.340547237E1,-7.691006470E-1,9.734556885E0,1.225351868E0,9.841473505E0
1.341540937E1,-2.262245636E0,1.008527756E1,1.871707764E0,1.050399299E1
1.342534737E1,-2.565814362E0,1.051278854E1,1.247206421E0,1.089300923E1
1.343528437E1,-2.950514374E0,1.065828598E1,8.443940735E-1,1.109132979E1
1.344522237E1,-3.068618774E0,1.065080154E1,5.249583435E-1,1.109646682E1
1.345515937E1,-3.194506989E0,1.050335815E1,5.137316895E-1,1.099041981E1
1.346509737E1,-3.219205627E0,1.026954437E1,6.128256226E-1,1.077972086E1
1.347503437E1,-2.867886200E0,9.918823700E0,7.355703735E-1,1.035127522E1
1.348497237E1,-2.433938599E0,9.511670380E0,9.779164124E-1,9.866724432E0
1.349490937E1,-1.999691620E0,9.042845306E0,1.388662262E0,9.364838530E0
1.350484737E1,-1.503473511E0,8.546776886E0,1.848356323E0,8.872668642E0
1.351478437E1,-1.035696259E0,8.099956055E0,2.247426453E0,8.469526580E0
1.352472237E1,-7.436535645E-1,7.761659546E0,2.633623352E0,8.229966676E0
1.353465937E1,-4.385879517E-1,7.409591675E0,2.952460327E0,7.988205691E0
1.354459737E1,-1.773811340E-1,7.163353729E0,2.825075226E0,7.702347093E0
1.355453437E1,-4.595443726E-2,7.088808746E0,2.737058258E0,7.599000537E0
1.356447237E1,1.047821045E-2,7.309300232E0,2.680026855E0,7.785147630E0
1.357440937E1,9.400451660E-2,7.854466553E0,2.784808960E0,8.334065192E0
1.358434737E1,3.490740967E-1,8.517737274E0,2.879262543E0,8.997991653E0
1.359428437E1,6.888674927E-1,9.124126282E0,2.841391296E0,9.581112844E0
1.360422237E1,6.035449219E-1,9.642198944E0,2.569706268E0,9.996982407E0
1.361416037E1,4.430786133E-2,1.009021729E1,2.218237152E0,1.033126440E1
1.362409737E1,-7.110214233E-1,1.047237259E1,1.963766327E0,1.067860091E1
1.363403537E1,-1.236428833E0,1.065409470E1,1.590442657E0,1.084287775E1
1.364397237E1,-1.646575928E0,1.076381653E1,1.314416656E0,1.096807411E1
1.365391037E1,-1.864822083E0,1.085228256E1,1.396446075E0,1.109953422E1
1.366384737E1,-1.525477753E0,1.076426559E1,1.664837952E0,1.099855361E1
1.367378537E1,-7.271878052E-1,1.049916687E1,2.033670959E0,1.071900763E1
1.368372237E1,-1.604663086E-1,1.012958542E1,2.406695251E0,1.041280136E1
1.369366037E1,5.224136353E-2,1.004096970E1,2.785258026E0,1.042024299E1
1.370359737E1,1.225950623E-1,1.022643402E1,3.072959747E0,1.067886061E1
1.371353537E1,-1.826202393E-2,1.048090485E1,2.989134064E0,1.089883583E1
1.372347237E1,-5.054988098E-1,1.091604996E1,2.192041626E0,1.114543504E1
1.373341037E1,-1.207239532E0,1.151091293E1,9.066645813E-1,1.160950406E1
1.374334700E1,-1.767225037E0,1.202659058E1,-7.744894409E-1,1.218038584E1
1.375328500E1,-1.854194183E0,1.210577591E1,-2.188149719E0,1.244089408E1
1.376322200E1,-8.577163696E-1,1.169083878E1,-2.663710785E0,1.202109578E1
1.377316000E1,2.125579834E-2,1.109417953E1,-2.699336700E0,1.141786714E1
1.378309700E1,2.918930054E-1,1.051398605E1,-2.555186462E0,1.082395871E1
1.379303500E1,7.168592834E-1,9.938283234E0,-2.462678833E0,1.026392459E1
1.380297200E1,1.249601440E0,9.618398438E0,-2.203567657E0,9.946396467E0
1.381291000E1,1.618883514E0,9.452393646E0,-1.877096558E0,9.772001891E0
1.382284700E1,2.160307617E0,9.399852905E0,-1.706750793E0,9.794751753E0
1.383278500E1,2.912194061E0,9.336983643E0,-1.693877563E0,9.926195595E0
1.384272200E1,4.075275421E0,9.354497223E0,-1.396446075E0,1.029876447E1
1.385266000E1,4.019890594E0,1.001896545E1,-8.785231018E-1,1.083101990E1
1.386259700E1,1.343156891E0,1.124820923E1,-5.194198608E-2,1.132823814E1
1.387253500E1,-3.481759644E-1,1.246981888E1,1.554816742E0,1.257119980E1
1.388247300E1,-1.518442383E0,1.276335846E1,2.489024048E0,1.309214372E1
1.389241000E1,-3.588188324E0,1.295870224E1,1.802850952E0,1.356662562E1
1.390234800E1,-5.010081482E0,1.267564087E1,6.671626282E-1,1.364616774E1
1.391228500E1,-5.416336670E0,1.198003738E1,9.026229858E-2,1.314785708E1
1.392222300E1,-5.065166931E0,1.120165604E1,1.917512512E-1,1.229511214E1
1.393216000E1,-4.701573029E0,1.006102798E1,5.932164001E-1,1.112119502E1
1.394209800E1,-4.294120331E0,9.032217407E0,1.174607391E0,1.006976282E1
1.395203500E1,-3.581901398E0,8.298592987E0,1.792971497E0,9.214738736E0
1.396197300E1,-2.649340668E0,7.524851990E0,2.186952209E0,8.271950399E0
1.397191000E1,-1.785037994E0,7.298522644E0,2.610720978E0,7.954285477E0
1.398184800E1,-1.062640228E0,7.609875183E0,3.239413605E0,8.338657270E0
1.399178500E1,-4.471202087E-1,8.117170258E0,3.859873352E0,8.999277291E0
1.400172300E1,1.204994202E-1,8.823850708E0,4.277355194E0,9.806662474E0
1.401166000E1,7.578739929E-1,9.344767456E0,4.326602783E0,1.032562557E1
1.402159800E1,1.462907867E0,9.546847229E0,3.986959076E0,1.044883889E1
1.403153500E1,1.984123993E0,9.582323456E0,3.304228821E0,1.032838801E1
1.404147300E1,2.077529755E0,9.433383179E0,2.344275055E0,9.939842736E0
1.405141000E1,1.818717957E0,9.042096863E0,1.450783081E0,9.336595859E0
1.406134800E1,1.422641602E0,8.594078522E0,8.614585876E-1,8.753525328E0
1.407128500E1,9.943821716E-1,8.262218628E0,6.969506836E-1,8.350975561E0
1.408122300E1,5.054988098E-1,8.095465393E0,9.991722107E-1,8.172541470E0
1.409116000E1,1.167572021E-1,7.989485779E0,1.584455109E0,8.145920037E0
1.410109800E1,-7.723937988E-2,7.930508423E0,2.161355438E0,8.220120869E0
1.411103500E1,-1.420545959E-1,7.981552277E0,2.593357086E0,8.393500892E0
1.412097300E1,-1.236428833E-1,8.052055664E0,2.820135498E0,8.532529063E0
1.413091100E1,-2.529739380E-1,7.923023987E0,2.938688965E0,8.454241405E0
1.414084800E1,-5.451663208E-1,7.687264252E0,3.019670563E0,8.277055533E0
1.415078600E1,-8.511300659E-1,7.438182220E0,3.133733368E0,8.116111258E0
1.416072300E1,-1.138083344E0,7.311844940E0,3.310515747E0,8.106653109E0
1.417066100E1,-1.446142731E0,7.271878052E0,3.464994507E0,8.183992066E0
1.418059800E1,-1.732946320E0,7.302264862E0,3.536246338E0,8.296457872E0
1.419053600E1,-1.958676910E0,7.372917938E0,3.524720306E0,8.403569920E0
1.420047300E1,-2.193239136E0,7.472760315E0,3.500770111E0,8.538608552E0
1.421041100E1,-2.468666382E0,7.558981018E0,3.503314819E0,8.689402883E0
1.422034800E1,-2.823728027E0,7.248376923E0,3.529959412E0,8.542424798E0
1.423028600E1,-2.900368652E0,7.405101013E0,3.673211517E0,8.760145101E0
1.424022300E1,-2.608924713E0,8.768615570E0,3.760929108E0,9.891394994E0
1.425016100E1,-2.437231750E0,9.243727570E0,3.430715790E0,1.015659435E1
1.426009800E1,-2.354603577E0,9.444160767E0,3.259771271E0,1.026462076E1
1.427003600E1,-2.465223541E0,9.797725525E0,3.485052795E0,1.068729833E1
1.427997300E1,-2.871927795E0,1.056368271E1,3.925137634E0,1.162953426E1
1.428991100E1,-3.439397736E0,1.107501938E1,4.129313049E0,1.231002588E1
1.429984800E1,-3.863615570E0,1.106499023E1,3.941004639E0,1.236499299E1
1.430978600E1,-4.516857147E0,1.077579163E1,4.299958191E0,1.245027406E1
1.431972300E1,-4.841232605E0,1.058598633E1,5.249433746E0,1.276938504E1
1.432966100E1,-5.100194092E0,1.039827667E1,6.180048523E0,1.312741929E1
1.433959800E1,-5.766159210E0,1.015907410E1,6.859485626E0,1.354650957E1
1.434953600E1,-6.170169067E0,1.039543259E1,6.628515930E0,1.378670477E1
1.435947300E1,-5.551655273E0,1.136436768E1,4.753065948E0,1.351152711E1
1.436941100E1,-3.899091797E0,1.259331207E1,2.098186798E0,1.334903793E1
1.437934900E1,-2.163900146E0,1.420905212E1,2.080673218E-1,1.437438410E1
1.438928600E1,-2.266287231E-1,1.621997040E1,-9.593550110E-1,1.624989730E1
1.439922400E1,2.533780975E0,1.811637680E1,-1.825304260E0,1.838354944E1
1.440916100E1,5.373525696E0,1.871393417E1,-2.482886810E0,1.962780776E1
1.441909900E1,6.375691681E0,1.713965790E1,-2.239942017E0,1.842375254E1
1.442903600E1,4.543202362E0,1.355700806E1,-1.054107971E0,1.433681620E1
1.443897400E1,1.673070831E0,1.039992325E1,-4.751119995E-1,1.054434924E1
1.444891100E1,2.396516418E-1,8.547076263E0,-6.881190491E-1,8.578079819E0
1.445884900E1,-4.077520752E-1,7.313192139E0,-7.226971436E-1,7.360117674E0
1.446878600E1,-7.367678833E-1,6.429878998E0,-5.492079163E-1,6.495213636E0
1.447872400E1,-7.366181946E-1,5.791157227E0,-1.678010559E-1,5.840228213E0
1.448866100E1,-7.917036438E-1,5.520070953E0,4.656816101E-1,5.595966168E0
1.449859900E1,-3.969744873E-1,5.823639679E0,8.024812317E-1,5.892057703E0
1.450853600E1,4.435276794E-1,6.783443756E0,1.033899994E0,6.876101744E0
1.451847400E1,1.477128296E0,7.934550018E0,1.384620667E0,8.188782961E0
1.452841100E1,2.131268005E0,9.094188538E0,1.419049072E0,9.447765277E0
1.453834900E1,2.187401276E0,1.007479935E1,1.025667114E0,1.036041984E1
1.454828600E1,2.163451080E0,1.061173279E1,8.568182373E-1,1.086386353E1
1.455822400E1,2.248174896E0,1.053793625E1,8.794212341E-1,1.081090988E1
1.456816100E1,2.449506226E0,1.010099487E1,6.475534058E-1,1.041390914E1
1.457809900E1,2.819686432E0,9.498497772E0,2.624043274E-1,9.911657154E0
1.458803600E1,3.312761078E0,8.709189148E0,-1.466949463E-1,9.319113744E0
1.459797400E1,4.119882660E0,8.366851044E0,-2.350112915E-1,9.329140358E0
1.460791100E1,4.602928162E0,8.393495636E0,2.380050659E-2,9.572788680E0
1.461784900E1,4.313879242E0,8.463549957E0,9.340576172E-2,9.499997717E0
1.462778700E1,4.004772034E0,8.539142761E0,3.222798157E-1,9.437108795E0
1.463772400E1,3.072510681E0,8.487949219E0,1.073717194E0,9.090570523E0
1.464766200E1,1.989213409E0,8.407117310E0,1.812730408E0,8.827376902E0
1.465759900E1,1.643582153E0,8.435707855E0,2.475102997E0,8.943638195E0
1.466753700E1,1.846410370E0,8.710985413E0,2.305805054E0,9.198219124E0
1.467747400E1,8.702902222E-1,9.128317566E0,2.415975952E0,9.482643432E0
1.468741200E1,4.528083801E-1,9.544452209E0,1.694925385E0,9.704348276E0
1.469734900E1,2.877017212E-1,9.884395294E0,5.821394348E-1,9.905701840E0
1.470728700E1,-3.565585327E-1,1.001387604E1,-1.781295776E-2,1.002023775E1
1.471722400E1,-1.557810516E0,1.026999344E1,4.574487305E-1,1.039753808E1
1.472716200E1,-2.205214233E0,1.053928345E1,3.613485718E-1,1.077358056E1
1.473709900E1,-2.669848022E0,1.060739182E1,-1.767823792E-1,1.093965729E1
1.474703662E1,-3.111280060E0,1.051997360E1,-3.052153015E-1,1.097465556E1
1.475697362E1,-3.362457733E0,1.046638504E1,-1.965412903E-1,1.099499733E1
1.476691162E1,-3.168161774E0,1.033301239E1,5.478607178E-1,1.082167018E1
1.477684862E1,-1.885628815E0,9.803713074E0,1.240919495E0,1.006023197E1
1.478678662E1,-8.104147339E-1,9.123677216E0,1.413959656E0,9.268092570E0
1.479672362E1,-2.359094238E-1,8.563392334E0,1.305435333E0,8.665535352E0
1.480666162E1,-1.002914429E-1,8.233179016E0,1.277293854E0,8.332273080E0
1.481659862E1,-4.090992737E-1,8.077353058E0,1.435215454E0,8.214063430E0
1.482653662E1,-5.867797852E-1,7.979905701E0,1.657952271E0,8.171414274E0
1.483647362E1,-5.170248413E-1,7.882158966E0,1.729653168E0,8.086250351E0
1.484641162E1,-5.777984619E-1,7.800129547E0,1.735491028E0,8.011728972E0
1.485634862E1,-5.487588501E-1,8.001760254E0,1.669478302E0,8.192463685E0
1.486628662E1,-8.343649292E-1,8.314909058E0,1.749112701E0,8.537755719E0
1.487622362E1,-1.155596924E0,8.573271790E0,1.942959595E0,8.866311827E0
1.488616162E1,-1.278341675E0,8.811426544E0,2.139051819E0,9.157015773E0
1.489609962E1,-1.453327789E0,9.213340759E0,2.172282715E0,9.576879544E0
1.490603662E1,-1.090781708E0,9.684261475E0,2.137405243E0,9.977135171E0
1.491597462E1,-8.583151245E-1,9.955796814E0,2.105371857E0,1.021210976E1
1.492591162E1,-6.541397095E-1,1.005608826E1,2.258503418E0,1.032732528E1
1.493584962E1,-4.378395081E-1,1.020697449E1,2.314187622E0,1.047518477E1
1.494578662E1,-3.203338623E-1,1.031849258E1,2.048939209E0,1.052483040E1
1.495572462E1,-4.489164734E-1,1.031879196E1,1.673220520E0,1.046320508E1
1.496566162E1,-6.493496704E-1,1.021341110E1,1.237776031E0,1.030861343E1
1.497559962E1,-7.318281555E-1,9.924511871E0,1.046174469E0,1.000629748E1
1.498553662E1,-7.695497131E-1,9.658964081E0,1.317859497E0,9.778780473E0
1.499547462E1,-7.785310364E-1,9.631720734E0,1.794767761E0,9.828394893E0
1.500541162E1,-4.102967834E-1,9.909243622E0,2.343376923E0,1.019082273E1
1.501534962E1,2.944377136E-1,1.000309845E1,3.021317139E0,1.045356539E1
1.502528662E1,4.294569397E-1,9.930649109E0,3.650309143E0,1.058900287E1
1.503522462E1,1.782792664E-1,1.009725266E1,3.901187439E0,1.082615158E1
1.504516162E1,-2.011816406E-1,1.041638901E1,3.761228485E0,1.107648291E1
1.505509962E1,-5.956114197E-1,1.059212357E1,3.067271576E0,1.104336858E1
1.506503662E1,-1.125359802E0,1.078896423E1,1.938019867E0,1.101926063E1
1.507497462E1,-1.883084106E0,1.122725281E1,3.144960022E-1,1.138842040E1
1.508491162E1,-2.385738831E0,1.153052216E1,-1.239422607E0,1.183979980E1
1.509484962E1,-2.242636414E0,1.133038834E1,-2.189347229E0,1.175586489E1
1.510478662E1,-1.516795807E0,1.092113937E1,-2.804867249E0,1.137713650E1
1.511472462E1,-6.649172974E-1,1.046608566E1,-2.865790558E0,1.087169810E1
1.512466162E1,-3.233276367E-2,1.002659958E1,-2.679278412E0,1.037845255E1
1.513459962E1,4.674778748E-1,9.740694122E0,-2.614912262E0,1.009640647E1
1.514453662E1,8.705895996E-1,9.609417114E0,-2.712359619E0,1.002276001E1
1.515447462E1,1.329535217E0,9.631870422E0,-2.667003937E0,1.008233612E1
1.516441162E1,1.628014526E0,9.678423615E0,-2.439177704E0,1.011295718E1
1.517434962E1,1.984872437E0,9.631571045E0,-2.074685669E0,1.005043283E1
1.518428762E1,2.780617676E0,1.008842102E1,-1.251996460E0,1.053923946E1
1.519422462E1,2.729723511E0,1.117007172E1,-6.120771790E-1,1.151505671E1
1.520416262E1,7.441026306E-1,1.172676407E1,-2.227368164E-1,1.175245914E1
1.521409962E1,-1.251098328E0,1.182750458E1,7.375163269E-1,1.191633509E1
1.522403762E1,-2.893932037E0,1.252445526E1,1.839824066E0,1.298544473E1
1.523397462E1,-4.639003143E0,1.260109589E1,1.788929901E0,1.354652125E1
1.524391262E1,-5.224884796E0,1.208242447E1,8.500822449E-1,1.319117288E1
1.525384962E1,-5.094505920E0,1.158500885E1,-4.939727783E-3,1.265568825E1
1.526378762E1,-4.642595673E0,1.109597580E1,-3.308120728E-1,1.203261444E1
1.527372463E1,-3.995491333E0,1.047521667E1,3.712280273E-2,1.121140016E1
1.528366262E1,-3.431464233E0,9.687404938E0,8.864566040E-1,1.031535586E1
1.529359963E1,-2.862347717E0,8.978030090E0,1.861528931E0,9.605381237E0
1.530353762E1,-2.276466064E0,8.531658325E0,2.637066193E0,9.215509190E0
1.531347462E1,-1.400637360E0,8.312663727E0,3.209326172E0,9.020085239E0
1.532341263E1,-3.263214111E-2,8.483907623E0,3.983665924E0,9.372691588E0
1.533334962E1,3.574566650E-1,8.945248260E0,4.184398499E0,9.882025729E0
1.534328763E1,3.118016052E-1,9.420360260E0,3.936064911E0,1.021435336E1
1.535322462E1,2.375559998E-1,9.749376068E0,3.680546265E0,1.042368396E1
1.536316262E1,3.623963928E-1,9.753717041E0,3.322790222E0,1.031054131E1
1.537309962E1,7.348219299E-1,9.571396179E0,2.821782074E0,1.000570048E1
1.538303762E1,1.145867157E0,9.147477722E0,2.151625671E0,9.466723470E0
1.539297462E1,1.238075409E0,8.737779694E0,1.297501831E0,8.919929131E0
1.540291262E1,1.122216339E0,8.415050812E0,6.800358582E-1,8.516742244E0
1.541285062E1,8.234376526E-1,8.248297577E0,6.337820435E-1,8.313491575E0
1.542278762E1,6.096821594E-1,8.143216095E0,1.124910736E0,8.243124703E0
1.543272562E1,7.005432129E-1,8.036637726E0,1.799408112E0,8.265360021E0
1.544266262E1,8.232879639E-1,7.912545776E0,2.409689026E0,8.312206983E0
1.545260062E1,8.018824768E-1,7.876171417E0,2.716999969E0,8.370136232E0
1.546253762E1,5.348377991E-1,7.872429199E0,2.769840088E0,8.362607672E0
1.547247562E1,1.008901978E-1,7.787705383E0,2.798580322E0,8.275903926E0
1.548241262E1,-3.803590393E-1,7.633975067E0,2.896476746E0,8.173850125E0
1.549235062E1,-8.358618164E-1,7.441026306E0,3.097808075E0,8.103329707E0
1.550228762E1,-1.402134247E0,7.395820313E0,3.379073181E0,8.251198344E0
1.551222562E1,-1.883982239E0,7.457941132E0,3.634591827E0,8.507674932E0
1.552216262E1,-2.199825439E0,7.413932648E0,3.751199341E0,8.595180380E0
1.553210062E1,-2.436782684E0,7.436685333E0,3.671415253E0,8.644159216E0
1.554203762E1,-2.456391907E0,7.580236816E0,3.613336029E0,8.749288465E0
1.555197562E1,-2.550695801E0,7.657476196E0,3.620820465E0,8.846091318E0
1.556191262E1,-2.675236816E0,7.537874908E0,3.655099182E0,8.794100306E0
1.557185062E1,-2.690804443E0,7.260202332E0,3.867208099E0,8.654840549E0
1.558178762E1,-2.227966919E0,7.732470245E0,3.814817047E0,8.905490542E0
1.559172562E1,-1.788331146E0,8.402027893E0,3.575315094E0,9.304573017E0
1.560166262E1,-1.812131653E0,8.771160278E0,3.549119568E0,9.633967172E0
1.561160062E1,-2.136357422E0,9.057514801E0,3.651356964E0,9.996749726E0
1.562153762E1,-2.620899811E0,9.486372986E0,3.673361206E0,1.050494982E1
1.563147562E1,-3.130889282E0,1.035396881E1,3.571273499E0,1.139127439E1
1.564141262E1,-3.504212952E0,1.120479950E1,3.904330902E0,1.237218008E1
1.565135062E1,-4.022884369E0,1.105585922E1,4.738845520E0,1.268354362E1
1.566128762E1,-4.505630493E0,1.057071808E1,5.465135193E0,1.272432668E1
1.567122562E1,-4.927153931E0,1.017883301E1,5.904471588E0,1.275728310E1
1.568116262E1,-5.510341187E0,9.733359375E0,6.258934479E0,1.281703575E1
1.569110062E1,-6.082451477E0,9.602531433E0,6.470294952E0,1.307935559E1
1.570103862E1,-6.090983734E0,1.002495300E1,5.921985168E0,1.314038332E1
1.571097562E1,-5.431006165E0,1.073687256E1,4.215384064E0,1.274934207E1
1.572091362E1,-4.057013397E0,1.151854706E1,1.668879547E0,1.232564169E1
1.573085062E1,-2.461032257E0,1.285436920E1,-6.126759338E-1,1.310217002E1
1.574078862E1,-7.093748474E-1,1.501677246E1,-1.694925385E0,1.512876201E1
1.575072587E1,1.884431305E0,1.767254974E1,-1.974094849E0,1.788203418E1
1.576066387E1,4.924908600E0,1.954395813E1,-2.783312073E0,2.034619990E1
1.577060087E1,7.092550964E0,1.920341629E1,-3.636837158E0,2.079187488E1
1.578053887E1,6.507866821E0,1.560489944E1,-2.717449036E0,1.712453639E1
1.579047587E1,4.026027832E0,1.130883316E1,-1.172661438E0,1.206124962E1
1.580041387E1,1.578766937E0,8.951086121E0,2.095642090E-2,9.089273181E0
1.581035087E1,3.905378723E-1,7.469167786E0,2.993774414E-1,7.485359984E0
1.582028887E1,-6.436614990E-2,6.332431641E0,5.059478760E-2,6.332960865E0
1.583022587E1,-2.300715637E-1,5.498216400E0,-8.472381592E-2,5.503680099E0
1.584016387E1,-2.625540161E-1,4.889132996E0,3.517684937E-2,4.896304062E0
1.585010087E1,-5.472619629E-1,4.822072449E0,5.423222351E-1,4.883235788E0
1.586003887E1,-8.187973022E-2,5.432802429E0,8.147557068E-1,5.494167215E0
1.586997587E1,1.141675873E0,6.987020416E0,1.184786224E0,7.178133218E0
1.587991387E1,1.621128845E0,8.783135376E0,1.552122345E0,9.065352146E0
1.588985087E1,1.737137604E0,1.033031799E1,1.669029236E0,1.060748677E1
1.589978887E1,1.915117493E0,1.135628448E1,1.518292694E0,1.161628534E1
1.590972587E1,2.373913422E0,1.137394775E1,1.203796692E0,1.168123619E1
1.591966387E1,2.994522858E0,1.090467361E1,8.315208435E-1,1.133889327E1
1.592960087E1,3.824546814E0,1.017209702E1,2.703378296E-1,1.087068528E1
1.593953887E1,4.687951355E0,9.347012787E0,-3.926335144E-1,1.046411473E1
1.594947587E1,5.039420471E0,8.714577942E0,-9.205856323E-1,1.010876379E1
1.595941387E1,5.112318878E0,8.491092682E0,-1.132544861E0,9.975826638E0
1.596935187E1,5.118306427E0,8.373437347E0,-1.142574005E0,9.880131024E0
1.597928887E1,3.748954010E0,8.431217194E0,-6.111790466E-1,9.247357426E0
1.598922687E1,2.729873199E0,8.497678986E0,1.507365417E-1,8.926672243E0
1.599916387E1,2.174827423E0,8.663683777E0,1.111289062E0,9.001347359E0
1.600910187E1,1.526974640E0,8.941506042E0,1.907782745E0,9.269402185E0
1.601903887E1,1.047821045E0,9.187893677E0,2.330503693E0,9.536590933E0
1.602897687E1,8.214916992E-1,9.428144073E0,2.243384857E0,9.726125894E0
1.603891388E1,4.191284180E-1,9.675878906E0,1.993704071E0,9.888031005E0
1.604885187E1,4.095483398E-1,9.792486420E0,1.167871399E0,9.870382147E0
1.605878888E1,-4.510121155E-1,9.664502563E0,1.365460510E0,9.770900886E0
1.606872687E1,-1.184486847E0,9.770931244E0,2.151176605E0,1.007480358E1
1.607866387E1,-7.940986633E-1,9.830058289E0,1.411414948E0,9.962566476E0
1.608860188E1,-1.083896027E0,9.867630157E0,1.037492523E0,9.981049356E0
1.609853887E1,-2.389481049E0,9.994416504E0,1.507215729E0,1.038603294E1
1.610847688E1,-2.809058533E0,1.004860382E1,1.306632843E0,1.051534773E1
1.611841387E1,-2.588567047E0,9.977801056E0,8.138575745E-1,1.034019136E1
1.612835187E1,-2.714754639E0,9.833650818E0,8.098159790E-1,1.023359092E1
1.613828887E1,-2.731968842E0,9.524393921E0,7.466473389E-1,9.936559543E0
1.614822687E1,-2.501148834E0,9.216633911E0,6.634204102E-1,9.572993930E0
1.615816387E1,-2.001038818E0,8.877888336E0,7.699987793E-1,9.133124098E0
1.616810187E1,-1.371448059E0,8.534951477E0,1.105750580E0,8.714869525E0
1.617803887E1,-9.186396790E-1,8.202343140E0,1.374741211E0,8.367332026E0
1.618797687E1,-6.090834045E-1,7.904911652E0,1.548529816E0,8.078152970E0
1.619791387E1,-5.105882263E-1,7.776927795E0,1.661095734E0,7.968722941E0
1.620785187E1,-3.293151855E-1,7.751480713E0,1.685494995E0,7.939445517E0
1.621778887E1,-4.760101318E-1,7.727979584E0,1.749412079E0,7.937801756E0
1.622772687E1,-2.800675964E-1,7.805817719E0,1.777852936E0,8.010617278E0
1.623766387E1,-2.627037048E-1,7.989036713E0,1.979184265E0,8.234736862E0
1.624760187E1,-5.435197449E-1,8.496930542E0,2.517015839E0,8.878547802E0
1.625753987E1,-3.751199341E-1,9.131760406E0,2.921774139E0,9.595130390E0
1.626747687E1,-4.420307922E-1,9.806108093E0,3.258124695E0,1.034265554E1
1.627741487E1,-4.102967834E-1,1.045381119E1,3.337010651E0,1.098117261E1
1.628735187E1,-1.898052979E-1,1.094748459E1,3.018323364E0,1.135754026E1
1.629728987E1,-8.996292114E-2,1.128772705E1,2.364333344E0,1.153303722E1
1.630722687E1,-1.529818726E-1,1.164982407E1,1.479523315E0,1.174439413E1
1.631716487E1,9.520202637E-2,1.179098053E1,6.550378418E-1,1.180954529E1
1.632710187E1,9.729766846E-3,1.150268005E1,4.384382629E-1,1.151103693E1
1.633703987E1,-3.427871704E-1,1.114297806E1,1.141975250E0,1.120658603E1
1.634697687E1,-8.086184692E-1,1.071456894E1,2.220781860E0,1.097213395E1
1.635691487E1,-1.094074860E0,1.023047562E1,2.973117371E0,1.070976461E1
1.636685187E1,-6.207591248E-1,9.734407196E0,2.990630951E0,1.020234771E1
1.637678987E1,-1.658551025E-1,9.676028595E0,2.951562195E0,1.011754697E1
1.638672687E1,-9.116043091E-2,1.007135651E1,3.066074066E0,1.052812150E1
1.639666487E1,-2.297721863E-1,1.051937485E1,2.968776398E0,1.093268840E1
1.640660187E1,-5.617817688E-1,1.089209976E1,2.435136108E0,1.117512075E1
1.641653987E1,-9.392967224E-1,1.130763565E1,1.426982574E0,1.143596002E1
1.642647687E1,-1.218166809E0,1.158081757E1,-6.676116943E-2,1.164490116E1
1.643641487E1,-1.299148407E0,1.160207336E1,-1.353784790E0,1.175281354E1
1.644635187E1,-1.099613342E0,1.147498764E1,-1.984273682E0,1.169708651E1
1.645628987E1,-3.547622681E-1,1.100721039E1,-2.224075012E0,1.123525907E1
1.646622687E1,1.531315613E-1,1.045815216E1,-2.255659332E0,1.069973808E1
1.647616487E1,4.562512207E-1,9.815089417E0,-2.177671509E0,1.006411440E1
1.648610187E1,6.929090881E-1,9.237440643E0,-2.120041351E0,9.502894716E0
1.649603987E1,8.858578491E-1,8.854686584E0,-2.140848083E0,9.152783683E0
1.650597687E1,1.173409882E0,8.620124359E0,-2.227517853E0,8.980271182E0
1.651591487E1,1.521585846E0,8.439599762E0,-2.342628479E0,8.889880529E0
1.652585187E1,1.948947144E0,8.373287659E0,-2.148931274E0,8.861616489E0
1.653578987E1,1.982028351E0,8.485703888E0,-1.473236389E0,8.837761725E0
1.654572787E1,1.634750519E0,9.151818695E0,-4.790039062E-1,9.309008509E0
1.655566487E1,3.465293884E-1,1.006836273E1,6.015989685E-1,1.009227091E1
1.656560287E1,8.008346558E-2,1.136571487E1,2.101929016E0,1.155871937E1
1.657553987E1,-1.563348999E0,1.318787567E1,2.400408325E0,1.349540977E1
1.658547787E1,-3.734284515E0,1.337603439E1,1.628463593E0,1.398267037E1
1.659541487E1,-4.724475403E0,1.281799484E1,9.279203796E-1,1.369243206E1
