"Time (s)","Acceleration x (m/s^2)","Acceleration y (m/s^2)","Acceleration z (m/s^2)","Absolute acceleration (m/s^2)"
1.552666654E-3,-1.006506958E0,6.150410156E0,7.864944763E0,1.003483719E1
1.148866664E-2,-1.006806335E0,6.192772064E0,7.521858215E0,9.795020972E0
2.142466663E-2,-1.011746063E0,6.258635101E0,7.381300507E0,9.730248743E0
3.135966667E-2,-1.053209839E0,6.312972107E0,7.346872101E0,9.743685004E0
4.129566666E-2,-1.069076843E0,6.299500122E0,7.378755798E0,9.760771702E0
5.123166664E-2,-1.060544586E0,6.268664246E0,7.443271637E0,9.788932470E0
6.116666662E-2,-1.068328400E0,6.268963623E0,7.452552338E0,9.797028469E0
7.110266667E-2,-1.062041473E0,6.273903351E0,7.439379730E0,9.789492638E0
8.103866666E-2,-1.069525909E0,6.277645569E0,7.418423309E0,9.776795178E0
9.097366664E-2,-1.029858398E0,6.271059265E0,7.426506500E0,9.774445837E0
1.009096666E-1,-9.602531433E-1,6.275699615E0,7.433242493E0,9.775458338E0
1.108456667E-1,-8.625064087E-1,6.262826385E0,7.426805878E0,9.753171647E0
1.207806666E-1,-7.969427490E-1,6.238127747E0,7.412286072E0,9.720665632E0
1.307166666E-1,-8.033793640E-1,6.224356384E0,7.468868408E0,9.755615106E0
1.406526666E-1,-8.195457458E-1,6.215225372E0,7.554340668E0,9.816758354E0
1.505876667E-1,-8.304730225E-1,6.191724243E0,7.603438568E0,9.840701835E0
1.605236667E-1,-7.957452393E-1,6.185736694E0,7.594457245E0,9.827122152E0
1.704596666E-1,-7.366181946E-1,6.206393738E0,7.549101563E0,9.800554270E0
1.803946666E-1,-6.783892822E-1,6.207291870E0,7.497009888E0,9.756835636E0
1.903306667E-1,-6.680607605E-1,6.212980042E0,7.504045258E0,9.765148304E0
2.002666667E-1,-7.318281555E-1,6.213279419E0,7.571554871E0,9.821856074E0
2.102016666E-1,-7.824229431E-1,6.213728485E0,7.604486389E0,9.851437489E0
2.201376666E-1,-8.506809998E-1,6.234385529E0,7.595056000E0,9.862864529E0
2.300736667E-1,-8.625064087E-1,6.249803467E0,7.542365570E0,9.833170347E0
2.400086666E-1,-8.244854736E-1,6.258186035E0,7.481591949E0,9.788712216E0
2.499446666E-1,-8.006849670E-1,6.278394012E0,7.374714203E0,9.718319678E0
2.598806666E-1,-8.125103760E-1,6.273603973E0,7.307354279E0,9.665180106E0
2.698156667E-1,-8.566685486E-1,6.263125763E0,7.323370972E0,9.674315878E0
2.797516666E-1,-9.328601074E-1,6.231541443E0,7.413932648E0,9.729785919E0
2.896876666E-1,-9.422904968E-1,6.176605682E0,7.451055450E0,9.724021620E0
2.996226667E-1,-9.159452820E-1,6.112987976E0,7.409292297E0,9.649103072E0
3.095586667E-1,-8.649014282E-1,6.111042023E0,7.227270813E0,9.504016650E0
3.194946666E-1,-8.890013123E-1,6.118825836E0,6.994953918E0,9.335937728E0
3.294296666E-1,-9.199868774E-1,6.152505798E0,6.710245972E0,9.150251606E0
3.393656667E-1,-9.732760620E-1,6.148015137E0,6.570885773E0,9.051071553E0
3.493016667E-1,-1.154698792E0,6.067781982E0,6.610852661E0,9.047357647E0
3.592366666E-1,-1.355581055E0,5.760321350E0,6.628815308E0,8.885949270E0
3.691726666E-1,-1.475631409E0,5.458249512E0,6.556665344E0,8.657934871E0
3.791086667E-1,-1.256936188E0,5.697302399E0,6.503974915E0,8.737324126E0
3.890436667E-1,-1.346599731E0,5.449118500E0,6.553372192E0,8.628609990E0
3.989796666E-1,-1.431622925E0,4.589905243E0,6.413562927E0,8.015644937E0
4.089156666E-1,-1.556313629E0,3.645519104E0,4.641847229E0,6.103987823E0
4.188506667E-1,-1.737287292E0,4.476890259E0,5.241051178E0,7.108398622E0
4.287866667E-1,-2.103425903E0,4.536616058E0,6.319259033E0,8.058431641E0
4.387226666E-1,-1.701661377E0,3.492686920E0,4.532275085E0,5.969592182E0
4.486576666E-1,-8.547225952E-1,3.513643341E0,4.687502289E0,5.920212661E0
4.585936667E-1,-1.258133698E0,4.175716553E0,5.925428009E0,7.357323305E0
4.685296667E-1,-1.102008362E0,4.791535950E0,5.975723419E0,7.738379001E0
4.784646666E-1,-7.607180786E-1,5.063520355E0,5.716312866E0,7.674253264E0
4.884006666E-1,-1.187480621E0,5.101241913E0,5.650898895E0,7.704896989E0
4.983356667E-1,-1.772464142E0,5.047353973E0,5.836063843E0,7.916884011E0
5.082716667E-1,-1.958527222E0,5.062622223E0,6.068231049E0,8.141830305E0
5.182076666E-1,-1.899849243E0,5.182522888E0,6.295009460E0,8.372282529E0
5.281436666E-1,-1.815125427E0,5.297633514E0,6.567442932E0,8.630811540E0
5.380786667E-1,-1.401086426E0,5.377866669E0,6.854845276E0,8.824590463E0
5.480146667E-1,-6.789880371E-1,5.109624481E0,6.917564850E0,8.626818101E0
5.579496666E-1,-4.095483398E-1,4.681814117E0,6.775210876E0,8.245641012E0
5.678856666E-1,-5.297483826E-1,4.519551544E0,6.648125153E0,8.056335864E0
5.778216667E-1,-1.011895752E0,4.338278503E0,6.642137604E0,7.997661241E0
5.877570000E-1,-1.478924561E0,4.221072235E0,6.706803131E0,8.061381824E0
5.976930000E-1,-1.986369324E0,4.152215424E0,6.912625122E0,8.304874598E0
6.076290000E-1,-2.667003937E0,3.794459381E0,7.504194946E0,8.821778380E0
6.175640000E-1,-2.523153076E0,2.991379395E0,7.846982117E0,8.768681798E0
6.275000000E-1,-2.183808746E0,2.510279846E0,7.512876892E0,8.216680884E0
6.374360000E-1,-2.253414001E0,2.267185364E0,7.395670624E0,8.056919269E0
6.473710000E-1,-2.674488373E0,2.199226685E0,7.364086304E0,8.137521315E0
6.573070000E-1,-3.254532166E0,2.206561432E0,6.503525848E0,7.599785617E0
6.672430000E-1,-3.885470123E0,2.003733215E0,5.913602600E0,7.354081900E0
6.771780000E-1,-3.965403900E0,1.690734100E0,6.207142181E0,7.557223296E0
6.871140000E-1,-3.469485168E0,1.322499847E0,7.045848083E0,7.964314685E0
6.970500000E-1,-3.546574860E0,1.263522491E0,8.056546326E0,8.892840998E0
7.069850000E-1,-3.955823822E0,1.636696472E0,7.575446777E0,8.701420075E0
7.169210000E-1,-4.628674622E0,1.586251373E0,6.704857178E0,8.300357338E0
7.268570000E-1,-5.164410553E0,1.881886597E0,6.319109344E0,8.375188143E0
7.367920000E-1,-4.819228363E0,1.761387177E0,5.912105713E0,7.828182469E0
7.467280000E-1,-4.588857422E0,1.138382721E0,5.654790802E0,7.370901347E0
7.566640000E-1,-4.550387421E0,-5.224136353E-2,5.321733398E0,7.002114052E0
7.665990000E-1,-4.406686249E0,-1.094074860E0,5.242548065E0,6.935430319E0
7.765350000E-1,-4.921914825E0,-2.049388275E0,5.350623322E0,7.553436819E0
7.864710000E-1,-5.253924408E0,-1.626517639E0,5.212161255E0,7.577328438E0
7.964060000E-1,-5.938301239E0,-1.203497314E-1,4.876559143E0,7.684968103E0
8.063420000E-1,-5.560935974E0,7.364685059E-1,5.038222961E0,7.539899560E0
8.162780000E-1,-4.908592529E0,-2.975811768E-1,5.272336121E0,7.209740865E0
8.262130000E-1,-6.055657196E0,-6.572831726E-1,5.035977631E0,7.903421787E0
8.361490000E-1,-5.857319641E0,-1.412911835E0,4.978646851E0,7.816101182E0
8.460850000E-1,-6.802304535E0,-2.289039917E0,5.239703979E0,8.886256159E0
8.560200000E-1,-6.816524963E0,-3.165167999E0,5.339546356E0,9.219222111E0
8.659560000E-1,-6.588698730E0,-3.738176422E0,5.460045776E0,9.337934129E0
8.758920000E-1,-6.788982239E0,-3.856131134E0,4.971611481E0,9.256184304E0
8.858270000E-1,-7.099736023E0,-3.901935883E0,4.811893616E0,9.422615104E0
8.957630000E-1,-7.492818604E0,-3.949237518E0,5.077291718E0,9.875105001E0
9.056990000E-1,-7.894732819E0,-3.651506653E0,5.018913116E0,1.004239991E1
9.156340000E-1,-7.863298187E0,-3.200195160E0,4.802912292E0,9.754008096E0
9.255700000E-1,-7.500752106E0,-2.823278961E0,4.546944580E0,9.214493543E0
9.355060000E-1,-7.563471680E0,-2.875969391E0,4.255800018E0,9.142709532E0
9.454410000E-1,-8.509953461E0,-3.601061554E0,4.430187378E0,1.024761008E1
9.553770000E-1,-8.776249695E0,-4.292473755E0,4.783452759E0,1.087792765E1
9.653130000E-1,-8.330626373E0,-4.845573578E0,4.856201477E0,1.079173813E1
9.752480000E-1,-8.455915833E0,-6.076912994E0,4.421056366E0,1.131269745E1
9.851840000E-1,-8.137228546E0,-7.266040192E0,4.089944916E0,1.165064281E1
9.951200000E-1,-8.086035004E0,-8.169411621E0,3.864813080E0,1.212683093E1
1.005055000E0,-8.414901123E0,-8.621920624E0,3.843856659E0,1.264607885E1
1.014991000E0,-8.894204407E0,-8.711883545E0,3.852239227E0,1.303240323E1
1.024927000E0,-9.371561737E0,-9.279652863E0,3.938459930E0,1.376406892E1
1.034862000E0,-9.617649994E0,-9.729317780E0,3.942501526E0,1.423734997E1
1.044798000E0,-9.721833344E0,-9.669891357E0,3.855083313E0,1.424368315E1
1.054734000E0,-9.534872131E0,-9.495653687E0,3.910318451E0,1.401327285E1
1.064669000E0,-9.553283844E0,-9.659562836E0,3.719914398E0,1.408581377E1
1.074605000E0,-1.007180557E1,-1.034064651E1,3.607498169E0,1.487898790E1
1.084541000E0,-1.065140030E1,-1.064855621E1,3.756139069E0,1.552264985E1
1.094476000E0,-1.086021606E1,-1.077234879E1,4.138593750E0,1.584663212E1
1.104412000E0,-1.123982666E1,-1.086710175E1,4.750072174E0,1.633985279E1
1.114348000E0,-1.187345901E1,-1.087129303E1,4.840933228E0,1.681067148E1
1.124283000E0,-1.256008118E1,-1.098206268E1,4.634063416E0,1.731576980E1
1.134219000E0,-1.332274521E1,-1.020547760E1,4.417164459E0,1.735392333E1
1.144155000E0,-1.356733658E1,-9.044491882E0,4.001478882E0,1.678949935E1
1.154090000E0,-1.362601456E1,-8.511150970E0,3.577710114E0,1.645928228E1
1.164026000E0,-1.344204712E1,-8.774303741E0,3.360062714E0,1.640021519E1
1.173962000E0,-1.296079788E1,-9.257049866E0,3.022215271E0,1.621138609E1
1.183897000E0,-1.245440094E1,-8.820407867E0,2.785557404E0,1.551357560E1
1.193833000E0,-1.168530029E1,-8.392447815E0,2.726729736E0,1.464289856E1
1.203769000E0,-1.180924255E1,-8.631800079E0,2.466271362E0,1.483403778E1
1.213704000E0,-1.228600113E1,-8.937913513E0,3.151696014E0,1.551661398E1
1.223640000E0,-1.355012238E1,-9.230554962E0,4.273014221E0,1.694306973E1
1.233576000E0,-1.443268707E1,-9.396859131E0,4.433480530E0,1.778367699E1
1.243511000E0,-1.277458511E1,-9.860445099E0,3.168461151E0,1.644559359E1
1.253447000E0,-1.016880386E1,-1.051697983E1,5.331912231E-1,1.463884318E1
1.263383000E0,-1.116243759E1,-1.113429611E1,1.044827271E-1,1.576653036E1
1.273318000E0,-1.210577591E1,-1.066472260E1,1.361119537E0,1.619069995E1
1.283254000E0,-1.151166138E1,-1.009306137E1,1.771116943E0,1.541184904E1
1.293190000E0,-8.820108490E0,-1.043330383E1,9.452842712E-1,1.369458670E1
1.303125000E0,-9.673633575E0,-1.151824768E1,1.657652893E0,1.513264780E1
1.313061000E0,-8.747210083E0,-1.376552444E1,4.532275085E0,1.692763613E1
1.322997000E0,-4.762795715E0,-1.390787842E1,4.142335968E0,1.527325284E1
1.332932000E0,-7.475305023E0,-1.354188950E1,5.336103516E0,1.636266962E1
1.342868000E0,-1.049557434E1,-1.455168961E1,4.865931244E0,1.858994454E1
1.352804000E0,-4.168980560E0,-1.152962402E1,1.007674530E1,1.586989051E1
1.362739000E0,-3.161126404E0,-8.494834900E0,4.487667847E0,1.011405472E1
1.372675000E0,-6.145919495E0,-1.164114212E1,5.689518585E0,1.434082069E1
1.382611000E0,-5.834566956E0,-1.171688461E1,1.262280075E1,1.818413197E1
1.392546000E0,-6.354435883E0,-1.089060287E1,1.472038879E1,1.938230979E1
1.402482000E0,-6.525380402E0,-1.034738251E1,1.203542221E1,1.716101110E1
1.412418000E0,-5.854625244E0,-8.389004974E0,1.024185196E1,1.447575811E1
1.422353000E0,-4.624633026E0,-4.842130737E0,7.604785767E0,1.013243442E1
1.432289000E0,-2.468666382E0,-3.999233551E0,1.050066376E0,4.815685008E0
1.442225000E0,-1.938768311E0,-2.387834473E0,-1.083297272E0,3.260998162E0
1.452160000E0,-9.708810425E-1,-1.185085602E0,2.041155396E0,2.552127197E0
1.462096000E0,-5.665718079E-1,-1.772613831E0,4.071383514E0,4.476530702E0
1.472032000E0,6.698570251E-1,-2.678380280E0,6.784491577E0,7.324735853E0
1.481967000E0,2.347568207E0,-2.799179077E0,9.465865631E0,1.014638320E1
1.491903000E0,2.227817230E0,-3.395389252E0,7.191495209E0,8.258900721E0
1.501839000E0,3.524869995E0,-2.807411957E0,2.138153687E0,4.987782229E0
1.511774000E0,5.121599579E0,-1.883233795E0,1.663041687E0,5.704652437E0
1.521710000E0,4.235142975E0,-3.143463135E0,3.149151306E0,6.142878026E0
1.531646000E0,2.282603302E0,-2.237996063E0,1.293759613E0,3.448582049E0
1.541581000E0,1.628762970E0,-6.752458191E-1,-1.210382996E0,2.138656757E0
1.551517000E0,-5.533992004E-1,-1.438508606E0,-2.084714813E0,2.592603621E0
1.561453000E0,-2.897823944E0,-1.922302551E0,-2.065704346E0,4.044720652E0
1.571388000E0,-3.367846527E0,-3.391048279E0,-1.687740326E0,5.068536876E0
1.581324000E0,-3.931424561E0,-4.705764313E0,-1.370699615E0,6.283242338E0
1.591260042E0,-4.348157959E0,-5.197641449E0,-2.011816406E-1,6.779559596E0
1.601195042E0,-4.777315521E0,-4.302353210E0,3.032843170E0,7.108524772E0
1.611131042E0,-6.672374725E0,-3.924838257E0,1.293011169E0,7.848364014E0
1.621067042E0,-5.829926605E0,-4.206851807E0,-3.697311401E0,8.084290813E0
1.631002042E0,-4.850812683E0,-4.122427368E0,3.502716064E-2,6.366004869E0
1.640938042E0,-4.694537659E0,-4.051025848E0,3.609593811E0,7.174863186E0
1.650874042E0,-4.295018463E0,-4.746180267E0,3.743265839E0,7.415217452E0
1.660809042E0,-4.763693848E0,-5.197192383E0,2.480940857E0,7.473864815E0
1.670745042E0,-5.088218994E0,-5.089117126E0,2.767445068E0,7.710242400E0
1.680681042E0,-4.984185333E0,-4.634213104E0,4.504732361E0,8.161534670E0
1.690616042E0,-6.182593231E0,-4.437372437E0,2.871329041E0,8.133834499E0
1.700552042E0,-8.465795288E0,-3.751947784E0,1.107247467E0,9.325920812E0
1.710488042E0,-1.136212234E1,-2.838696899E0,4.227209473E-1,1.171898960E1
1.720423042E0,-1.187645279E1,-1.193468170E0,8.581654358E-1,1.196707755E1
1.730359042E0,-1.114462463E1,5.538482666E-1,1.084644470E0,1.121097051E1
1.740295042E0,-1.054227722E1,1.794169006E0,1.445094910E0,1.079105883E1
1.750230042E0,-1.046428940E1,2.176174622E0,1.506916351E0,1.079388185E1
1.760166042E0,-9.989177399E0,6.057902527E-1,1.229393463E0,1.008276030E1
1.770102042E0,-8.808732147E0,-2.423460388E-1,1.651665344E0,8.965516831E0
1.780037042E0,-8.793314209E0,-6.758445740E-1,1.569635925E0,8.957840008E0
1.789973042E0,-1.165191971E1,-6.798861694E-1,3.532653809E-2,1.167179190E1
1.799909042E0,-9.874815216E0,-1.475930786E-1,-5.081932068E-1,9.888984761E0
1.809844042E0,-9.104067993E0,-7.824229431E-1,-9.110055542E-1,9.182928226E0
1.819780042E0,-8.867709503E0,-2.023043060E0,-7.405101013E-1,9.125641362E0
1.829716042E0,-1.020607635E1,-3.399430847E0,-6.676116943E-1,1.077802533E1
1.839652042E0,-1.027583130E1,-5.357808380E0,-2.063758392E0,1.177106275E1
1.849587042E0,-1.181567917E1,-6.715485077E0,-3.372187500E0,1.400284480E1
1.859523042E0,-1.488848923E1,-7.203170929E0,-4.479584656E0,1.713532788E1
1.869459042E0,-1.538096512E1,-6.453679504E0,-2.599494324E0,1.688139324E1
1.879394042E0,-1.546089890E1,-5.426964569E0,-7.785310364E-1,1.640419000E1
1.889330042E0,-1.464614319E1,-4.571343842E0,-1.193468170E0,1.538931646E1
1.899266042E0,-1.348695374E1,-3.833378448E0,-6.735992432E-3,1.402115390E1
1.909201042E0,-1.031534912E1,-3.283422089E0,-2.339485016E0,1.107521911E1
1.919137042E0,-8.397088165E0,-3.597319336E0,-3.751199341E-1,9.142894018E0
1.929073042E0,-1.531375488E1,-4.251908112E0,6.730004883E0,1.725928089E1
1.939008042E0,-1.510254410E1,-6.245462494E0,1.115929413E1,1.978945389E1
1.948944042E0,-2.037263489E-1,-6.040688324E0,7.654332733E0,9.752960035E0
1.958880042E0,-2.785856781E0,-2.564616852E0,3.435805206E0,5.113024058E0
1.968815042E0,-3.000660095E0,-3.943100281E0,2.872676239E0,5.727501166E0
1.978751042E0,-2.298021240E0,-5.407505035E0,2.432741089E0,6.359264229E0
1.988687042E0,-3.150947571E0,-5.680836639E0,3.029699707E-1,6.503242754E0
1.998622042E0,-3.195704498E0,-6.186335449E0,-1.552122345E0,7.133887951E0
2.008558042E0,-3.544479218E0,-6.566395111E0,-2.497556305E0,7.868841412E0
2.018494042E0,-4.020189972E0,-6.347999268E0,-2.689756622E0,7.980840357E0
2.028429042E0,-5.332660675E0,-5.779631195E0,-3.077151031E0,8.444540550E0
2.038365042E0,-5.743556213E0,-5.524860992E0,-3.471431122E0,8.692718849E0
2.048301042E0,-4.868176575E0,-5.184468842E0,-3.824546814E0,8.074962456E0
2.058236042E0,-3.328777771E0,-4.410578156E0,-2.043251038E0,5.891420535E0
2.068172042E0,-3.053799591E0,-5.478158112E0,5.635780334E-1,6.297104766E0
2.078108042E0,-4.822371826E0,-7.704927521E0,3.907773743E0,9.894032229E0
2.088043042E0,-6.407276001E0,-8.919501801E0,4.824766846E0,1.199537716E1
2.097979042E0,-6.458918610E0,-8.566236420E0,3.038980408E0,1.115049048E1
2.107915042E0,-6.022426300E0,-7.751630402E0,8.996292114E-1,9.857318354E0
2.117850042E0,-5.698350220E0,-6.966812439E0,-3.245251465E-1,9.006274888E0
2.127786042E0,-5.024002533E0,-5.997577972E0,-7.309300232E-1,7.857849686E0
2.137722042E0,-3.854185181E0,-5.170398102E0,-6.755451965E-1,6.484143833E0
2.147657042E0,-2.702929230E0,-4.308191071E0,-2.436932373E-1,5.091730857E0
2.157593042E0,-1.814227295E0,-3.897445221E0,1.435514832E-1,4.301407555E0
2.167529042E0,-1.361418915E0,-3.866459656E0,5.601351929E-1,4.137236175E0
2.177464042E0,-7.767347717E-1,-3.668720856E0,9.886940002E-1,3.878188424E0
2.187400042E0,-5.792953491E-2,-3.783681793E0,1.072819061E0,3.933261303E0
2.197336042E0,5.207670593E-1,-5.024451599E0,-1.043330383E0,5.157988997E0
2.207271042E0,1.092727661E0,-5.369484100E0,3.915856934E-1,5.493519145E0
2.217207042E0,3.267704773E-1,-5.313949585E0,2.472857666E0,5.870252479E0
2.227143042E0,-4.278702393E0,-1.075273956E1,2.407892761E0,1.182060277E1
2.237079042E0,-1.052895493E1,-2.009511200E1,2.925366669E0,2.287422541E1
2.247014042E0,-1.001058289E1,-2.364692596E1,2.317780151E0,2.578295914E1
2.256950042E0,-9.289981384E0,-2.580498825E1,1.873054962E0,2.749017111E1
2.266886042E0,-6.550378418E0,-2.249881348E1,1.313219147E0,2.346973817E1
2.276821042E0,-4.543950806E0,-1.544518158E1,5.014572144E-1,1.610753185E1
2.286757042E0,-4.147575073E0,-1.746433273E1,-1.146166534E0,1.798663377E1
2.296693042E0,-3.783981171E0,-1.842278961E1,-2.763852539E0,1.900938114E1
2.306628042E0,-2.334395599E0,-1.518547165E1,-1.905836792E0,1.548160734E1
2.316564042E0,-1.794917450E0,-1.222552689E1,5.700146484E-1,1.236972728E1
2.326500042E0,-1.109941864E0,-1.208586731E1,5.222639465E-1,1.214795947E1
2.336435042E0,5.448669434E-2,-1.086799988E1,-7.197033691E-1,1.089194028E1
2.346371042E0,4.116439819E-2,-9.626930695E0,-2.055226135E0,9.843954671E0
2.356307042E0,-9.204359436E-1,-9.169332275E0,-1.845212860E0,9.398333214E0
2.366242042E0,-1.823358307E0,-8.576265564E0,-3.309617615E-1,8.774195247E0
2.376178042E0,-3.078198853E0,-8.238867188E0,8.113128662E-1,8.832466772E0
2.386114042E0,-3.535048828E0,-8.006400604E0,1.329834595E0,8.852540929E0
2.396049042E0,-3.548071747E0,-8.656648407E0,1.274000702E0,9.441898779E0
2.405985042E0,-3.755240936E0,-9.809850311E0,1.116228790E0,1.056318912E1
2.415921042E0,-3.407663727E0,-9.089697876E0,6.258485413E-1,9.727613579E0
2.425856042E0,-4.317471771E0,-8.628207550E0,2.724334717E-2,9.648174450E0
2.435792042E0,-5.273982697E0,-8.905281372E0,-8.891510010E-1,1.038795068E1
2.445728042E0,-5.492228851E0,-8.638236694E0,-1.417851562E0,1.033411893E1
2.455663042E0,-5.400319977E0,-8.539442139E0,-1.133592682E0,1.016713137E1
2.465599042E0,-5.050497437E0,-8.821006622E0,-4.842430115E-1,1.017605884E1
2.475535042E0,-4.474046173E0,-8.930129700E0,-7.155120850E-2,9.988464606E0
2.485470042E0,-4.047133942E0,-8.872050476E0,9.101074219E-2,9.751966763E0
2.495406042E0,-3.746409302E0,-8.871900787E0,1.092727661E-1,9.631103092E0
2.505342042E0,-3.565285950E0,-8.935219116E0,7.200027466E-2,9.620529538E0
2.515278042E0,-3.524420929E0,-8.924890594E0,9.819580078E-2,9.596085526E0
2.525213042E0,-3.693120117E0,-8.805588684E0,1.103205872E-1,9.549329762E0
2.535149042E0,-3.960015106E0,-8.750353546E0,-2.888992310E-2,9.604750983E0
2.545085042E0,-4.126319275E0,-8.772058411E0,-2.332150269E-1,9.696902019E0
2.555020042E0,-4.103416901E0,-8.844507751E0,-2.866539001E-1,9.754256409E0
2.564956042E0,-3.959266663E0,-9.025182037E0,-2.275268555E-1,9.858066331E0
2.574892042E0,-3.856580200E0,-9.147926788E0,-1.160087585E-1,9.928304659E0
2.584827042E0,-3.833079071E0,-9.171876984E0,-1.601669312E-2,9.940627702E0
2.594762500E0,-3.874393158E0,-9.150920563E0,-2.544708252E-3,9.937317342E0
2.604698500E0,-3.822451172E0,-9.048832855E0,-2.080673218E-2,9.823082099E0
2.614633500E0,-3.776945801E0,-8.897647247E0,-2.424957275E-2,9.666128189E0
2.624569500E0,-3.779191132E0,-8.766519928E0,3.457809448E-2,9.546483798E0
2.634505500E0,-3.866010590E0,-8.695417786E0,-2.095642090E-3,9.516109118E0
2.644440500E0,-4.058061218E0,-8.756191406E0,-1.273851013E-1,9.651682535E0
2.654376500E0,-4.222868500E0,-8.784632263E0,-2.218386841E-1,9.749440741E0
2.664312500E0,-4.279899902E0,-8.754095764E0,-2.420466614E-1,9.747323859E0
2.674247500E0,-4.370760956E0,-8.708141327E0,-2.342628479E-1,9.746289334E0
2.684183500E0,-4.479734344E0,-8.711733856E0,-2.273771667E-1,9.798674755E0
2.694119500E0,-4.584815826E0,-8.736432495E0,-1.914518738E-1,9.868254290E0
2.704054500E0,-4.700674896E0,-8.787027283E0,-2.127076721E-1,9.967619450E0
2.713990500E0,-4.808899841E0,-8.851243744E0,-2.797682190E-1,1.007711783E1
2.723926500E0,-4.878355408E0,-8.846603394E0,-3.574566650E-1,1.010883368E1
2.733862500E0,-4.844226379E0,-8.788673859E0,-3.929328918E-1,1.004299326E1
2.743797500E0,-4.758005676E0,-8.726702728E0,-3.830534363E-1,9.946893407E0
2.753733500E0,-4.593348083E0,-8.595425720E0,-3.499722290E-1,9.752059807E0
2.763669500E0,-4.385131073E0,-8.447682953E0,-2.601589966E-1,9.521575736E0
2.773604500E0,-4.320016479E0,-8.426576843E0,-1.163081360E-1,9.470124987E0
2.783540500E0,-4.406386871E0,-8.455167389E0,1.676513672E-2,9.534483830E0
2.793476500E0,-4.540208588E0,-8.505013733E0,1.332229614E-1,9.641913761E0
2.803411500E0,-4.627926178E0,-8.565188599E0,1.683998108E-1,9.736966413E0
2.813347500E0,-4.631069641E0,-8.639284515E0,1.320254517E-1,9.803135910E0
2.823283500E0,-4.578079834E0,-8.723259888E0,5.553451538E-2,9.851759341E0
2.833218500E0,-4.486320648E0,-8.795260162E0,-5.643264771E-2,9.873543382E0
2.843154500E0,-4.406835938E0,-8.829089813E0,-1.609153748E-1,9.869089303E0
2.853090500E0,-4.313130798E0,-8.850794678E0,-1.704954529E-1,9.847270302E0
2.863025500E0,-4.236041107E0,-8.869356079E0,-7.978408813E-2,9.829338076E0
2.872961500E0,-4.164340210E0,-8.906778259E0,-1.676513672E-2,9.832228100E0
2.882897500E0,-4.111799469E0,-8.971743164E0,-2.110610962E-2,9.869119299E0
2.892832500E0,-4.100872192E0,-9.001980286E0,-7.379653931E-2,9.892332775E0
2.902768500E0,-4.120780792E0,-8.968749390E0,-1.469943237E-1,9.871216100E0
2.912704500E0,-4.163891144E0,-8.911418610E0,-1.636097717E-1,9.837588081E0
2.922639500E0,-4.211492157E0,-8.872798920E0,-1.029858398E-1,9.822109394E0
2.932575500E0,-4.231550446E0,-8.885672150E0,-2.290237427E-2,9.841834851E0
2.942511500E0,-4.223317566E0,-8.889114990E0,4.131408691E-2,9.841467544E0
2.952446500E0,-4.222269745E0,-8.870852966E0,4.101470947E-2,9.824524230E0
2.962382500E0,-4.222419434E0,-8.839418335E0,-1.047821045E-2,9.796134552E0
2.972318500E0,-4.211192780E0,-8.792565765E0,-6.930587769E-2,9.749264622E0
2.982253500E0,-4.204157410E0,-8.804241486E0,-8.666976929E-2,9.756901112E0
2.992189500E0,-4.197571106E0,-8.822353821E0,-8.517288208E-2,9.770403500E0
3.002125500E0,-4.186943207E0,-8.854985962E0,-8.816665649E-2,9.795358246E0
3.012060500E0,-4.183650055E0,-8.865314484E0,-1.356179810E-1,9.803831950E0
3.021996500E0,-4.200115814E0,-8.848998413E0,-2.207908630E-1,9.797678009E0
3.031932500E0,-4.220922546E0,-8.837023315E0,-2.862048340E-1,9.797503837E0
3.041868500E0,-4.211791534E0,-8.847800903E0,-2.839595032E-1,9.803234250E0
3.051803500E0,-4.186045074E0,-8.849896545E0,-2.157014465E-1,9.792352595E0
3.061739500E0,-4.160298615E0,-8.833879852E0,-1.595681763E-1,9.765806665E0
3.071675500E0,-4.173022156E0,-8.832233276E0,-1.528321838E-1,9.769637467E0
3.081610500E0,-4.220024414E0,-8.822353821E0,-2.080673218E-1,9.781913157E0
3.091546500E0,-4.314477997E0,-8.818312225E0,-2.909948730E-1,9.821508484E0
3.101482500E0,-4.389921112E0,-8.827892303E0,-3.234773254E-1,9.864467926E0
3.111417500E0,-4.387825470E0,-8.844058685E0,-2.787203979E-1,9.876642721E0
3.121353500E0,-4.343966675E0,-8.837472382E0,-2.046244812E-1,9.849509416E0
3.131289500E0,-4.280049591E0,-8.822353821E0,-1.634600830E-1,9.807113267E0
3.141224500E0,-4.246669006E0,-8.829838257E0,-1.989363098E-1,9.799990661E0
3.151160500E0,-4.211043091E0,-8.839867401E0,-2.761756897E-1,9.795530235E0
3.161096500E0,-4.192182312E0,-8.791517944E0,-3.388952637E-1,9.745769867E0
3.171031500E0,-4.197271729E0,-8.763975220E0,-4.138893127E-1,9.726029816E0
3.180967500E0,-4.212539978E0,-8.755592651E0,-4.355941772E-1,9.726028893E0
3.190903500E0,-4.209995270E0,-8.751251678E0,-3.716770935E-1,9.718364573E0
3.200838500E0,-4.250860291E0,-8.786578217E0,-2.902464294E-1,9.765142751E0
3.210774500E0,-4.273014221E0,-8.839867401E0,-2.062710571E-1,9.820613726E0
3.220710500E0,-4.229155426E0,-8.882828064E0,-1.613644409E-1,9.839533958E0
3.230645500E0,-4.174369354E0,-8.893755341E0,-2.113604736E-1,9.826948500E0
3.240581500E0,-4.109105072E0,-8.886270905E0,-3.397933960E-1,9.796224509E0
3.250517500E0,-4.074227600E0,-8.850794678E0,-4.339476013E-1,9.753163973E0
3.260452500E0,-4.082161102E0,-8.848699036E0,-4.288581848E-1,9.754354578E0
3.270388500E0,-4.128564606E0,-8.882229309E0,-3.658392334E-1,9.801677486E0
3.280324500E0,-4.165088654E0,-8.945248260E0,-3.032693481E-1,9.872051572E0
3.290260500E0,-4.161945190E0,-8.988807678E0,-2.426454163E-1,9.908548231E0
3.300195500E0,-4.093537445E0,-8.978030090E0,-2.538720703E-1,9.870487533E0
3.310131500E0,-4.025578766E0,-8.967102814E0,-2.995271301E-1,9.833815830E0
3.320067500E0,-3.973038025E0,-8.949140167E0,-3.200344849E-1,9.796660806E0
3.330002500E0,-3.970493317E0,-8.922944641E0,-3.285667419E-1,9.771986203E0
3.339938500E0,-4.016148376E0,-8.916358337E0,-3.381468201E-1,9.784949517E0
3.349874500E0,-4.056714020E0,-8.906778259E0,-3.484753418E-1,9.793317245E0
3.359809500E0,-4.095782776E0,-8.872349854E0,-3.567082214E-1,9.778612848E0
3.369745500E0,-4.113895111E0,-8.842561798E0,-3.477268982E-1,9.758890620E0
3.379681500E0,-4.125720520E0,-8.835676117E0,-3.077600098E-1,9.756303525E0
3.389616500E0,-4.134252777E0,-8.843010864E0,-2.402503967E-1,9.764661153E0
3.399552500E0,-4.163591766E0,-8.843459930E0,-1.758842468E-1,9.776155441E0
3.409488500E0,-4.179009705E0,-8.848100281E0,-1.812730408E-1,9.787025115E0
3.419423500E0,-4.155059509E0,-8.829089813E0,-2.552192688E-1,9.761274678E0
3.429359500E0,-4.140090637E0,-8.823102264E0,-3.489244080E-1,9.752396233E0
3.439295500E0,-4.137695618E0,-8.810378723E0,-4.192781067E-1,9.742642988E0
3.449230500E0,-4.140539703E0,-8.837622070E0,-4.278103638E-1,9.768861479E0
3.459166500E0,-4.155209198E0,-8.878487091E0,-3.978726196E-1,9.810789934E0
3.469102500E0,-4.154011688E0,-8.912765808E0,-3.770658875E-1,9.840497251E0
3.479037500E0,-4.173171844E0,-8.927135925E0,-3.567082214E-1,9.860849853E0
3.488973500E0,-4.196074219E0,-8.915759583E0,-3.640429688E-1,9.860544359E0
3.498909500E0,-4.213288422E0,-8.863069153E0,-3.981719971E-1,9.821625887E0
3.508845500E0,-4.267026672E0,-8.809031525E0,-4.552033997E-1,9.798661294E0
3.518780500E0,-4.308191071E0,-8.741222534E0,-4.703219604E-1,9.756571346E0
3.528716500E0,-4.335434418E0,-8.726702728E0,-4.186793518E-1,9.753287881E0
3.538652500E0,-4.363575897E0,-8.756191406E0,-3.432362366E-1,9.789253989E0
3.548587500E0,-4.371060333E0,-8.802445221E0,-3.200344849E-1,9.833190346E0
3.558523500E0,-4.349205780E0,-8.822353821E0,-3.362008667E-1,9.841877305E0
3.568459500E0,-4.326303406E0,-8.779243469E0,-3.719764709E-1,9.794405727E0
3.578394500E0,-4.315675507E0,-8.732839966E0,-3.993695068E-1,9.749207401E0
3.588330500E0,-4.319866791E0,-8.716074829E0,-3.909869385E-1,9.735711597E0
3.598266750E0,-4.348307648E0,-8.730444946E0,-3.589535522E-1,9.759984427E0
3.608201750E0,-4.364923096E0,-8.783883820E0,-3.189866638E-1,9.813812770E0
3.618137750E0,-4.352049866E0,-8.823401642E0,-3.131488037E-1,9.843313301E0
3.628073750E0,-4.296665039E0,-8.840915222E0,-3.215313721E-1,9.834962880E0
3.638008750E0,-4.240831146E0,-8.823850708E0,-3.243754578E-1,9.795417784E0
3.647944750E0,-4.200265503E0,-8.822353821E0,-3.056643677E-1,9.775969923E0
3.657880750E0,-4.206253052E0,-8.828640747E0,-2.734812927E-1,9.783263985E0
3.667815750E0,-4.252955933E0,-8.827443237E0,-2.987786865E-1,9.803094255E0
3.677751750E0,-4.289929047E0,-8.828640747E0,-3.330574036E-1,9.821370368E0
3.687687750E0,-4.310586090E0,-8.794212341E0,-3.353027344E-1,9.799579127E0
3.697622750E0,-4.293222198E0,-8.786877594E0,-3.236270142E-1,9.784973640E0
3.707558750E0,-4.267176361E0,-8.781039734E0,-2.522254944E-1,9.766220897E0
3.717494750E0,-4.240382080E0,-8.783285065E0,-2.209405518E-1,9.755806037E0
3.727430750E0,-4.239933014E0,-8.785530396E0,-2.151026917E-1,9.757502009E0
3.737365750E0,-4.236490173E0,-8.812923431E0,-2.706372070E-1,9.782060769E0
3.747301750E0,-4.244723053E0,-8.838819580E0,-3.146456909E-1,9.810270500E0
3.757237750E0,-4.256099396E0,-8.868158569E0,-3.231779480E-1,9.841903396E0
3.767172750E0,-4.257296906E0,-8.873247986E0,-3.161425781E-1,9.846778808E0
3.777108750E0,-4.242777100E0,-8.876990204E0,-2.977308655E-1,9.843310229E0
3.787044750E0,-4.233346710E0,-8.868757324E0,-2.740800476E-1,9.831134254E0
3.796979750E0,-4.256997528E0,-8.864865417E0,-2.665956116E-1,9.837628782E0
3.806915750E0,-4.269870758E0,-8.865763550E0,-2.501298523E-1,9.843582912E0
3.816851750E0,-4.258045349E0,-8.861721954E0,-2.338137817E-1,9.834415848E0
3.826786750E0,-4.242178345E0,-8.842262421E0,-2.266287231E-1,9.809844158E0
3.836722750E0,-4.203708344E0,-8.837173004E0,-2.586621094E-1,9.789468659E0
3.846658750E0,-4.187392273E0,-8.807834015E0,-2.706372070E-1,9.756302506E0
3.856593750E0,-4.210594025E0,-8.827892303E0,-2.773731995E-1,9.784565420E0
3.866529750E0,-4.226461029E0,-8.847950592E0,-2.838098145E-1,9.809676372E0
3.876465750E0,-4.225562897E0,-8.844358063E0,-3.146456909E-1,9.806990020E0
3.886400750E0,-4.226910095E0,-8.854087830E0,-3.397933960E-1,9.817183904E0
3.896336750E0,-4.222718811E0,-8.843459930E0,-3.354524231E-1,9.805644600E0
3.906272750E0,-4.218228149E0,-8.822802887E0,-3.158432007E-1,9.784429285E0
3.916207750E0,-4.241579590E0,-8.824299774E0,-3.155438232E-1,9.795857891E0
3.926143750E0,-4.256847839E0,-8.816965027E0,-3.317102051E-1,9.796410438E0
3.936079750E0,-4.271367645E0,-8.812624054E0,-3.429368591E-1,9.799210681E0
3.946014750E0,-4.273612976E0,-8.795110474E0,-3.468287659E-1,9.784581049E0
3.955950750E0,-4.239334259E0,-8.795260162E0,-3.326083374E-1,9.769298060E0
3.965886750E0,-4.223916321E0,-8.807085571E0,-3.243754578E-1,9.772995691E0
3.975822750E0,-4.251309357E0,-8.809480591E0,-3.341052246E-1,9.787349275E0
3.985757750E0,-4.279600525E0,-8.823251953E0,-3.385958862E-1,9.812206829E0
3.995693750E0,-4.311633911E0,-8.826395416E0,-3.423381042E-1,9.829172824E0
4.005629750E0,-4.316573639E0,-8.818162537E0,-3.622467041E-1,9.824663922E0
4.015564750E0,-4.300556946E0,-8.803642731E0,-3.872447205E-1,9.805553215E0
4.025500750E0,-4.285288696E0,-8.793164520E0,-3.841012573E-1,9.789329664E0
4.035436750E0,-4.268224182E0,-8.796307983E0,-3.794609070E-1,9.784516462E0
4.045371750E0,-4.262536011E0,-8.803642731E0,-3.614982605E-1,9.787952777E0
4.055307750E0,-4.280498657E0,-8.825646973E0,-3.384461975E-1,9.814747020E0
4.065243750E0,-4.283342743E0,-8.809630280E0,-3.412902832E-1,9.801688108E0
4.075178750E0,-4.279750214E0,-8.805438995E0,-3.583547974E-1,9.796960547E0
4.085114750E0,-4.275409241E0,-8.809181213E0,-3.573069763E-1,9.798390996E0
4.095050750E0,-4.275409241E0,-8.782237244E0,-3.511697388E-1,9.773951881E0
4.104985750E0,-4.300856323E0,-8.763077087E0,-3.432362366E-1,9.767635142E0
4.114921750E0,-4.347708893E0,-8.773405609E0,-3.311114502E-1,9.797185994E0
4.124857750E0,-4.369563446E0,-8.774303741E0,-3.367996216E-1,9.807901144E0
4.134792750E0,-4.362827454E0,-8.809330902E0,-3.261717224E-1,9.835901704E0
4.144728750E0,-4.321213989E0,-8.837921448E0,-3.251239014E-1,9.843142354E0
4.154664750E0,-4.282743988E0,-8.850644989E0,-3.356021118E-1,9.838111687E0
4.164599750E0,-4.240382080E0,-8.848100281E0,-3.544628906E-1,9.818114010E0
4.174535750E0,-4.256249084E0,-8.805438995E0,-3.597019958E-1,9.786766458E0
4.184471750E0,-4.303550720E0,-8.760382690E0,-3.558100891E-1,9.766854893E0
4.194407750E0,-4.357887726E0,-8.752748566E0,-3.318598938E-1,9.783247103E0
4.204342750E0,-4.353846130E0,-8.757089539E0,-3.106040955E-1,9.784634291E0
4.214278750E0,-4.312232666E0,-8.759484558E0,-3.308120728E-1,9.768999791E0
4.224214750E0,-4.285139008E0,-8.769214325E0,-3.917353821E-1,9.768059828E0
4.234149750E0,-4.266577606E0,-8.801098022E0,-3.899391174E-1,9.788516915E0
4.244085750E0,-4.261188812E0,-8.806786194E0,-3.359014893E-1,9.789282046E0
4.254021750E0,-4.287983093E0,-8.815318451E0,-3.373983765E-1,9.808693902E0
4.263956750E0,-4.285737762E0,-8.829089813E0,-3.492237854E-1,9.820505707E0
4.273892750E0,-4.251159668E0,-8.821306000E0,-3.543132019E-1,9.798639493E0
4.283828750E0,-4.248465271E0,-8.823850708E0,-3.595523071E-1,9.799952874E0
4.293763750E0,-4.237238617E0,-8.813372498E0,-3.665876770E-1,9.785913979E0
4.303699750E0,-4.246669006E0,-8.809330902E0,-3.882925415E-1,9.787199788E0
4.313635750E0,-4.277953949E0,-8.825347595E0,-3.900888062E-1,9.815284990E0
4.323570750E0,-4.302652588E0,-8.824299774E0,-3.508703613E-1,9.823654911E0
4.333506750E0,-4.314328308E0,-8.811875610E0,-2.948867798E-1,9.815780088E0
4.343442750E0,-4.295617218E0,-8.796457672E0,-2.739303589E-1,9.793111492E0
4.353377750E0,-4.265679474E0,-8.807534637E0,-3.013233948E-1,9.790785645E0
4.363313750E0,-4.240082703E0,-8.810827789E0,-3.625460815E-1,9.784703742E0
4.373249750E0,-4.221670990E0,-8.799750824E0,-4.337979126E-1,9.769662284E0
4.383184750E0,-4.236340485E0,-8.786578217E0,-4.502636719E-1,9.764900144E0
4.393120750E0,-4.251009979E0,-8.777746582E0,-4.138893127E-1,9.761722454E0
4.403056750E0,-4.273014221E0,-8.782237244E0,-3.369493103E-1,9.772403818E0
4.412992750E0,-4.273612976E0,-8.799601135E0,-2.824626160E-1,9.786548582E0
4.422927750E0,-4.260590057E0,-8.820557556E0,-2.802172852E-1,9.799662492E0
4.432863750E0,-4.244273987E0,-8.825497284E0,-3.317102051E-1,9.798637438E0
4.442799750E0,-4.234843597E0,-8.815019073E0,-3.941304016E-1,9.787430732E0
4.452734750E0,-4.244872742E0,-8.799601135E0,-4.390370178E-1,9.779809724E0
4.462670750E0,-4.252357178E0,-8.800050201E0,-4.248165894E-1,9.782836718E0
4.472606750E0,-4.240232391E0,-8.808582458E0,-3.670367432E-1,9.782914271E0
4.482541750E0,-4.212390289E0,-8.832382965E0,-3.204835510E-1,9.790706333E0
4.492477750E0,-4.201013947E0,-8.839418335E0,-3.180885315E-1,9.792089409E0
4.502413750E0,-4.218527527E0,-8.852441254E0,-3.526666260E-1,9.812546275E0
4.512348750E0,-4.223467255E0,-8.856482849E0,-3.903881836E-1,9.819743736E0
4.522284750E0,-4.229754181E0,-8.838370514E0,-4.140390015E-1,9.807091417E0
4.532220750E0,-4.231700134E0,-8.815019073E0,-4.004173279E-1,9.786326243E0
4.542155750E0,-4.238436127E0,-8.807384949E0,-3.724255371E-1,9.781261228E0
4.552091750E0,-4.247716827E0,-8.809031525E0,-3.188369751E-1,9.784875659E0
4.562027750E0,-4.249962158E0,-8.811725922E0,-2.989283752E-1,9.787647840E0
4.571962750E0,-4.243226166E0,-8.804391174E0,-3.052153015E-1,9.778314202E0
4.581898750E0,-4.239633636E0,-8.790619812E0,-3.360511780E-1,9.765368423E0
4.591834792E0,-4.252207489E0,-8.812474365E0,-3.791615295E-1,9.792075185E0
4.601769792E0,-4.252207489E0,-8.819060669E0,-3.903881836E-1,9.798443884E0
4.611705792E0,-4.240831146E0,-8.809480591E0,-3.656895447E-1,9.783932028E0
4.621641792E0,-4.244573364E0,-8.809929657E0,-3.472778320E-1,9.785288217E0
4.631576792E0,-4.255650330E0,-8.816965027E0,-3.405418396E-1,9.796193177E0
4.641512792E0,-4.276157684E0,-8.836723938E0,-3.502716064E-1,9.823232904E0
4.651448792E0,-4.296665039E0,-8.849746857E0,-3.688330078E-1,9.844561325E0
4.661384792E0,-4.310286713E0,-8.858728180E0,-3.724255371E-1,9.858718846E0
4.671319792E0,-4.284390564E0,-8.836873627E0,-3.420387268E-1,9.826664159E0
4.681255792E0,-4.239933014E0,-8.815617828E0,-3.176394653E-1,9.787392119E0
4.691191792E0,-4.204157410E0,-8.782835999E0,-2.920426941E-1,9.741582861E0
4.701126792E0,-4.210594025E0,-8.768765259E0,-3.037184143E-1,9.732039410E0
4.711062792E0,-4.266427917E0,-8.793763275E0,-3.534150696E-1,9.780469412E0
4.720998792E0,-4.290378113E0,-8.820108490E0,-4.162843323E-1,9.817074451E0
4.730933792E0,-4.271367645E0,-8.805738373E0,-4.562512207E-1,9.797641299E0
4.740869792E0,-4.260140991E0,-8.801098022E0,-4.511618042E-1,9.788343815E0
4.750805792E0,-4.262236633E0,-8.818312225E0,-3.761677551E-1,9.801570986E0
4.760740792E0,-4.262835388E0,-8.835376740E0,-2.912942505E-1,9.814300791E0
4.770676792E0,-4.258943481E0,-8.830586700E0,-2.775228882E-1,9.807898858E0
4.780612792E0,-4.226011963E0,-8.832532654E0,-3.210823059E-1,9.796729252E0
4.790547792E0,-4.204157410E0,-8.834029541E0,-3.836521912E-1,9.790924699E0
4.800483792E0,-4.205055542E0,-8.842711487E0,-4.058061218E-1,9.800036590E0
4.810419792E0,-4.208797760E0,-8.855734406E0,-3.939807129E-1,9.812911456E0
4.820354792E0,-4.213288422E0,-8.870403900E0,-3.573069763E-1,9.826674562E0
4.830290792E0,-4.215533752E0,-8.879235535E0,-3.076103210E-1,9.833929663E0
4.840226792E0,-4.212390289E0,-8.871900787E0,-2.603086853E-1,9.824592416E0
4.850162792E0,-4.231251068E0,-8.862021332E0,-2.127076721E-1,9.822634689E0
4.860097792E0,-4.224066010E0,-8.846753082E0,-2.243833923E-1,9.806024763E0
4.870033792E0,-4.214635620E0,-8.837173004E0,-2.811154175E-1,9.794784632E0
4.879969792E0,-4.223467255E0,-8.829089813E0,-3.384461975E-1,9.793112294E0
4.889904792E0,-4.229754181E0,-8.837023315E0,-3.634442139E-1,9.803871338E0
4.899840792E0,-4.256847839E0,-8.835825806E0,-3.320095825E-1,9.813399083E0
4.909776792E0,-4.249363403E0,-8.837622070E0,-2.773731995E-1,9.810075896E0
4.919711792E0,-4.229604492E0,-8.831335144E0,-2.360591125E-1,9.794782207E0
4.929647792E0,-4.221072235E0,-8.824000397E0,-2.354603577E-1,9.784471135E0
4.939583792E0,-4.226161652E0,-8.810079346E0,-2.621049500E-1,9.774796130E0
4.949518792E0,-4.254901886E0,-8.810378723E0,-3.134481812E-1,9.789035349E0
4.959454792E0,-4.267176361E0,-8.827742615E0,-3.365002441E-1,9.810762773E0
4.969390792E0,-4.275109863E0,-8.819958801E0,-3.200344849E-1,9.806664044E0
4.979325792E0,-4.261188812E0,-8.813372498E0,-2.980302429E-1,9.793982178E0
4.989261792E0,-4.246818695E0,-8.813671875E0,-2.630030823E-1,9.787004218E0
4.999197792E0,-4.254303131E0,-8.795858917E0,-2.490820312E-1,9.773856510E0
5.009132792E0,-4.273762665E0,-8.808881836E0,-2.481838989E-1,9.794030925E0
5.019068792E0,-4.307742004E0,-8.814420319E0,-2.710862732E-1,9.814485952E0
5.029004792E0,-4.333488464E0,-8.818761292E0,-2.911445618E-1,9.830281692E0
5.038939792E0,-4.333039398E0,-8.819360046E0,-3.210823059E-1,9.831553077E0
5.048875792E0,-4.300856323E0,-8.825048218E0,-3.251239014E-1,9.822654769E0
5.058811792E0,-4.249213715E0,-8.822503510E0,-3.109034729E-1,9.797399978E0
5.068747792E0,-4.224215698E0,-8.817713470E0,-3.088078308E-1,9.782199721E0
5.078682792E0,-4.230802002E0,-8.832233276E0,-3.240760803E-1,9.798625186E0
5.088618792E0,-4.252656555E0,-8.820707245E0,-3.147953796E-1,9.797400686E0
5.098554792E0,-4.275409241E0,-8.825796661E0,-2.902464294E-1,9.811118890E0
5.108489792E0,-4.291575623E0,-8.828790436E0,-2.766247559E-1,9.820472654E0
5.118425792E0,-4.273163910E0,-8.830287323E0,-2.957849121E-1,9.814346271E0
5.128361792E0,-4.246968384E0,-8.838071136E0,-3.188369751E-1,9.810703282E0
5.138296792E0,-4.203708344E0,-8.829688568E0,-3.517684937E-1,9.785617258E0
5.148232792E0,-4.198020172E0,-8.800648956E0,-3.619473267E-1,9.757346016E0
5.158168792E0,-4.254602509E0,-8.805738373E0,-3.317102051E-1,9.785330983E0
5.168103792E0,-4.296964417E0,-8.835975494E0,-3.023712158E-1,9.830045498E0
5.178039792E0,-4.306993561E0,-8.865763550E0,-2.634521484E-1,9.860089446E0
5.187975792E0,-4.270619202E0,-8.865314484E0,-2.634521484E-1,9.843850684E0
5.197910792E0,-4.201463013E0,-8.819958801E0,-3.203338623E-1,9.774793015E0
5.207846792E0,-4.158202972E0,-8.778794403E0,-3.700305176E-1,9.720843879E0
5.217782792E0,-4.197870483E0,-8.787775726E0,-4.138893127E-1,9.747739388E0
5.227717792E0,-4.275109863E0,-8.818012848E0,-3.999682617E-1,9.807848364E0
5.237653792E0,-4.324507141E0,-8.834628296E0,-3.552113342E-1,9.842672108E0
5.247589792E0,-4.305047607E0,-8.794661407E0,-3.183879089E-1,9.796982956E0
5.257524792E0,-4.258195038E0,-8.762478333E0,-3.004252625E-1,9.746974241E0
5.267460792E0,-4.222419434E0,-8.762178955E0,-3.183879089E-1,9.731699583E0
5.277396792E0,-4.243974609E0,-8.774154053E0,-3.370989990E-1,9.752473305E0
5.287332792E0,-4.280049591E0,-8.819060669E0,-3.796105957E-1,9.810135564E0
5.297267792E0,-4.299060059E0,-8.843010864E0,-3.867956543E-1,9.840242345E0
5.307203792E0,-4.292473755E0,-8.859027557E0,-3.796105957E-1,9.851487421E0
5.317139792E0,-4.281546478E0,-8.856632538E0,-3.617976379E-1,9.843905611E0
5.327074792E0,-4.264332275E0,-8.842412109E0,-3.402424622E-1,9.822858372E0
5.337010792E0,-4.257745972E0,-8.835975494E0,-3.086581421E-1,9.813161241E0
5.346946792E0,-4.247118073E0,-8.827742615E0,-2.841091919E-1,9.800396402E0
5.356881792E0,-4.235292664E0,-8.865913239E0,-2.779719543E-1,9.829516260E0
5.366817792E0,-4.219425659E0,-8.867410126E0,-2.857557678E-1,9.824264430E0
5.376753792E0,-4.208648071E0,-8.829239502E0,-3.152444458E-1,9.786090528E0
5.386688792E0,-4.220623169E0,-8.802445221E0,-3.399430847E-1,9.767920101E0
5.396624792E0,-4.259093170E0,-8.774453430E0,-3.336561584E-1,9.759212779E0
5.406560792E0,-4.309388580E0,-8.784482574E0,-3.068618774E-1,9.789388553E0
5.416495792E0,-4.316124573E0,-8.803193665E0,-2.658471680E-1,9.807947020E0
5.426431792E0,-4.302502899E0,-8.814270630E0,-2.456391907E-1,9.811383009E0
5.436367792E0,-4.255500641E0,-8.808283081E0,-2.794688416E-1,9.786380300E0
5.446302792E0,-4.237537994E0,-8.787925415E0,-3.107537842E-1,9.761195074E0
5.456238792E0,-4.251608734E0,-8.777447205E0,-3.372486877E-1,9.758764929E0
5.466174792E0,-4.285588074E0,-8.769813080E0,-3.544628906E-1,9.767370707E0
5.476109792E0,-4.316573639E0,-8.778195648E0,-3.330574036E-1,9.787770637E0
5.486045792E0,-4.307742004E0,-8.813971252E0,-3.079096985E-1,9.815168811E0
5.495981792E0,-4.276606750E0,-8.847501526E0,-3.168910217E-1,9.831992091E0
5.505917792E0,-4.230203247E0,-8.854237518E0,-3.463796997E-1,9.818967381E0
5.515852792E0,-4.212989044E0,-8.848100281E0,-3.580554199E-1,9.806444766E0
5.525788792E0,-4.237837372E0,-8.828341370E0,-3.625460815E-1,9.799505936E0
5.535724792E0,-4.250560913E0,-8.808732147E0,-3.570075989E-1,9.787159166E0
5.545659792E0,-4.276157684E0,-8.804840240E0,-3.357518005E-1,9.794052556E0
5.555595792E0,-4.297712860E0,-8.830586700E0,-3.376977539E-1,9.826679860E0
5.565531792E0,-4.288282471E0,-8.841064911E0,-3.363505554E-1,9.831934042E0
5.575466792E0,-4.262536011E0,-8.831035767E0,-3.460803223E-1,9.812042476E0
5.585402792E0,-4.245621185E0,-8.815617828E0,-3.348536682E-1,9.790431243E0
5.595338750E0,-4.234095154E0,-8.801397400E0,-3.570075989E-1,9.773413548E0
5.605273750E0,-4.234394531E0,-8.814120941E0,-3.469784546E-1,9.784642000E0
5.615209750E0,-4.235442352E0,-8.818910980E0,-3.287164307E-1,9.788780174E0
5.625145750E0,-4.233047333E0,-8.828640747E0,-3.240760803E-1,9.796357102E0
5.635080750E0,-4.213138733E0,-8.848998413E0,-3.213816833E-1,9.806049005E0
5.645016750E0,-4.209546204E0,-8.845854950E0,-3.152444458E-1,9.801469691E0
5.654952750E0,-4.212539978E0,-8.818012848E0,-3.052153015E-1,9.777320698E0
5.664887750E0,-4.217330017E0,-8.803043976E0,-3.125500488E-1,9.766122222E0
5.674823750E0,-4.227508850E0,-8.816366272E0,-3.050656128E-1,9.782290649E0
5.684759750E0,-4.242178345E0,-8.846753082E0,-3.162922668E-1,9.816371937E0
5.694695750E0,-4.267475739E0,-8.871601410E0,-3.201841736E-1,9.849831403E0
5.704630750E0,-4.266727295E0,-8.877588959E0,-3.359014893E-1,9.855423752E0
5.714566750E0,-4.225862274E0,-8.863368530E0,-3.477268982E-1,9.825381807E0
5.724502750E0,-4.200415192E0,-8.826844482E0,-3.405418396E-1,9.781239188E0
5.734437750E0,-4.197421417E0,-8.796457672E0,-3.272195435E-1,9.752081150E0
5.744373750E0,-4.246519318E0,-8.799451447E0,-3.230282593E-1,9.775869237E0
5.754309750E0,-4.319118347E0,-8.818162537E0,-3.378474426E-1,9.824912962E0
5.764244750E0,-4.343667297E0,-8.816066895E0,-3.670367432E-1,9.834896901E0
5.774180750E0,-4.299509125E0,-8.778944092E0,-3.896397400E-1,9.783018819E0
5.784116750E0,-4.240082703E0,-8.762777710E0,-3.643423462E-1,9.741525541E0
5.794051750E0,-4.196672974E0,-8.780890045E0,-3.118016052E-1,9.737212860E0
5.803987750E0,-4.212989044E0,-8.835526428E0,-2.947370911E-1,9.792991060E0
5.813923750E0,-4.240082703E0,-8.869206390E0,-3.225791931E-1,9.835912802E0
5.823858750E0,-4.248764648E0,-8.867260437E0,-3.579057312E-1,9.839126242E0
5.833794750E0,-4.244872742E0,-8.852291565E0,-4.035607910E-1,9.825725004E0
5.843730750E0,-4.213438110E0,-8.844507751E0,-4.077520752E-1,9.805337313E0
5.853665750E0,-4.186793518E0,-8.849148102E0,-3.682342529E-1,9.796543194E0
5.863601750E0,-4.174668732E0,-8.851992188E0,-3.124003601E-1,9.791997686E0
5.873537750E0,-4.216132507E0,-8.856782227E0,-2.556683350E-1,9.812427377E0
5.883472750E0,-4.240232391E0,-8.869206390E0,-2.215393066E-1,9.833182211E0
5.893408750E0,-4.251009979E0,-8.863967285E0,-2.317181396E-1,9.833346082E0
5.903344750E0,-4.227808228E0,-8.825646973E0,-2.698887634E-1,9.789752134E0
5.913280750E0,-4.225712585E0,-8.793164520E0,-3.254232788E-1,9.761264746E0
5.923215750E0,-4.241280212E0,-8.794811096E0,-3.450325012E-1,9.770169266E0
5.933151750E0,-4.268822937E0,-8.818312225E0,-3.071612549E-1,9.802031820E0
5.943087750E0,-4.303999786E0,-8.841963043E0,-2.743794250E-1,9.837683096E0
5.953022750E0,-4.291276245E0,-8.845405884E0,-2.484832764E-1,9.834531051E0
5.962958750E0,-4.280199280E0,-8.818162537E0,-2.604583740E-1,9.805505339E0
5.972894750E0,-4.279151459E0,-8.800050201E0,-3.159928894E-1,9.790396941E0
5.982829750E0,-4.297114105E0,-8.782237244E0,-3.646417236E-1,9.783958515E0
5.992765750E0,-4.309987335E0,-8.791218567E0,-3.731739807E-1,9.797998446E0
6.002701750E0,-4.313879242E0,-8.815168762E0,-3.586541748E-1,9.820661242E0
6.012636750E0,-4.286186829E0,-8.822353821E0,-3.495231628E-1,9.814656943E0
6.022572750E0,-4.250860291E0,-8.818162537E0,-3.600013733E-1,9.795887133E0
6.032508750E0,-4.252357178E0,-8.815318451E0,-3.484753418E-1,9.793559926E0
6.042443750E0,-4.257596283E0,-8.792565765E0,-3.336561584E-1,9.774848606E0
6.052379750E0,-4.263583832E0,-8.779393158E0,-3.237767029E-1,9.765281494E0
6.062315750E0,-4.274211731E0,-8.769214325E0,-3.086581421E-1,9.760290756E0
6.072250750E0,-4.308490448E0,-8.759185181E0,-3.103047180E-1,9.766406913E0
6.082186750E0,-4.326902161E0,-8.763975220E0,-3.338058472E-1,9.779609926E0
6.092122750E0,-4.327949982E0,-8.781937866E0,-3.653901672E-1,9.797300327E0
6.102057750E0,-4.315226440E0,-8.807384949E0,-3.855981445E-1,9.815288829E0
6.111993750E0,-4.291126556E0,-8.802295532E0,-3.930825806E-1,9.800443239E0
6.121929750E0,-4.265978851E0,-8.794511719E0,-3.817062378E-1,9.782009588E0
6.131865750E0,-4.258494415E0,-8.790619812E0,-3.543132019E-1,9.774216552E0
6.141800750E0,-4.264781342E0,-8.793613586E0,-3.323089600E-1,9.778876676E0
6.151736750E0,-4.257446594E0,-8.820557556E0,-3.218307495E-1,9.799574590E0
6.161672750E0,-4.244723053E0,-8.846304016E0,-3.520678711E-1,9.818284999E0
6.171607750E0,-4.235741730E0,-8.855285339E0,-3.954776001E-1,9.824153346E0
6.181543750E0,-4.209097137E0,-8.844058685E0,-4.046086121E-1,9.802937359E0
6.191479750E0,-4.210893402E0,-8.829987946E0,-3.890409851E-1,9.790386267E0
6.201414750E0,-4.235442352E0,-8.824898529E0,-3.725752258E-1,9.795744906E0
6.211350750E0,-4.269571381E0,-8.821755066E0,-3.318598938E-1,9.806259899E0
6.221286750E0,-4.303999786E0,-8.830736389E0,-3.206332397E-1,9.828994100E0
6.231221750E0,-4.294569397E0,-8.849447479E0,-3.212319946E-1,9.841709048E0
6.241157750E0,-4.250560913E0,-8.843908997E0,-3.408412170E-1,9.818256829E0
6.251093750E0,-4.210294647E0,-8.843759308E0,-3.549119568E-1,9.801256155E0
6.261028750E0,-4.175566864E0,-8.820557556E0,-3.653901672E-1,9.765813034E0
6.270964750E0,-4.188889160E0,-8.825347595E0,-3.561094666E-1,9.775498275E0
6.280900750E0,-4.183500366E0,-8.842711487E0,-3.287164307E-1,9.787914806E0
6.290835750E0,-4.218228149E0,-8.889564056E0,-3.531156921E-1,9.845937666E0
6.300771750E0,-4.221521301E0,-8.914562073E0,-4.067042542E-1,9.871983965E0
6.310707750E0,-4.201463013E0,-8.878038025E0,-4.885839844E-1,9.834152985E0
6.320642750E0,-4.192930756E0,-8.846603394E0,-5.370831299E-1,9.804668185E0
6.330578750E0,-4.167483673E0,-8.816066895E0,-5.617817688E-1,9.767627880E0
6.340514750E0,-4.147724762E0,-8.782536621E0,-5.670208740E-1,9.729238556E0
6.350450750E0,-4.164190521E0,-8.781937866E0,-5.668711853E-1,9.735720740E0
6.360385750E0,-4.213288422E0,-8.812624054E0,-5.453160095E-1,9.783226032E0
6.370321750E0,-4.283791809E0,-8.873247986E0,-5.309458923E-1,9.867487300E0
6.380257750E0,-4.289629669E0,-8.951834564E0,-5.164260864E-1,9.939967840E0
6.390192750E0,-4.255650330E0,-8.955576782E0,-4.912783813E-1,9.927450311E0
6.400128750E0,-4.184847565E0,-8.908125458E0,-4.942721558E-1,9.854539729E0
6.410064750E0,-4.081412659E0,-8.842561798E0,-4.917274475E-1,9.751442166E0
6.419999750E0,-4.038002930E0,-8.816965027E0,-4.758604431E-1,9.709314245E0
6.429935750E0,-4.098477173E0,-8.787027283E0,-4.553530884E-1,9.706529248E0
6.439871750E0,-4.222419434E0,-8.753347321E0,-4.098477173E-1,9.727172782E0
6.449806750E0,-4.321513367E0,-8.732989655E0,-3.321592712E-1,9.749405924E0
6.459742750E0,-4.350702667E0,-8.761580200E0,-2.436932373E-1,9.785360887E0
6.469678750E0,-4.282444611E0,-8.834179230E0,-1.850152588E-1,9.819179454E0
6.479613750E0,-4.183200989E0,-8.839268646E0,-1.728904724E-1,9.780681563E0
6.489549750E0,-4.082759857E0,-8.815917206E0,-2.263293457E-1,9.718052748E0
6.499485750E0,-4.013603668E0,-8.797056427E0,-2.951861572E-1,9.673900509E0
6.509420750E0,-3.979025574E0,-8.820108490E0,-3.644920349E-1,9.682965080E0
6.519356750E0,-3.971241760E0,-8.893156586E0,-4.207749939E-1,9.748643330E0
6.529292750E0,-3.957769775E0,-8.963809662E0,-4.746629333E-1,9.810154441E0
6.539228750E0,-3.926035767E0,-9.016500092E0,-4.869374084E-1,9.846224595E0
6.549163750E0,-3.887715454E0,-9.037007446E0,-5.028044128E-1,9.850616596E0
6.559099750E0,-3.846700745E0,-9.048683167E0,-4.767585754E-1,9.843935819E0
6.569035750E0,-3.789819031E0,-9.007069702E0,-4.477189636E-1,9.782151357E0
6.578970750E0,-3.788920898E0,-8.949738922E0,-4.396357727E-1,9.728670411E0
6.588906750E0,-3.839216309E0,-8.896898804E0,-4.581971741E-1,9.700738881E0
6.598843125E0,-3.899540863E0,-8.868158569E0,-4.502636719E-1,9.698112844E0
6.608778125E0,-3.945345612E0,-8.854836273E0,-4.558021545E-1,9.704722202E0
6.618714125E0,-3.987258453E0,-8.829089813E0,-4.809498596E-1,9.699606676E0
6.628650125E0,-4.077670441E0,-8.807983704E0,-5.372328186E-1,9.720935770E0
6.638585125E0,-4.157753906E0,-8.807983704E0,-5.761518860E-1,9.757020317E0
6.648521125E0,-4.208797760E0,-8.814719696E0,-5.646258545E-1,9.784276379E0
6.658457125E0,-4.215234375E0,-8.790619812E0,-5.502557373E-1,9.764526557E0
6.668392125E0,-4.220922546E0,-8.800948334E0,-5.878276062E-1,9.778467161E0
6.678328125E0,-4.184997253E0,-8.819060669E0,-6.295907593E-1,9.781943448E0
6.688264125E0,-4.152365112E0,-8.835825806E0,-6.363267517E-1,9.783601864E0
6.698199125E0,-4.064048767E0,-8.765322418E0,-6.321354675E-1,9.682301623E0
6.708135125E0,-3.989354095E0,-8.652457123E0,-6.759942627E-1,9.551802375E0
6.718071125E0,-4.054319000E0,-8.638685760E0,-7.499404907E-1,9.572189142E0
6.728007125E0,-4.260440369E0,-8.734935608E0,-8.026309204E-1,9.751649532E0
6.737942125E0,-4.404291229E0,-8.855135651E0,-8.159532166E-1,9.923557239E0
6.747878125E0,-4.457131348E0,-8.862171021E0,-8.322692871E-1,9.954735919E0
6.757814125E0,-4.457580414E0,-8.761580200E0,-8.253836060E-1,9.864916059E0
6.767749125E0,-4.359983368E0,-8.621471558E0,-7.065307617E-1,9.687022892E0
6.777685125E0,-4.254602509E0,-8.502768402E0,-5.149291992E-1,9.521757458E0
6.787621125E0,-4.363725586E0,-8.482859802E0,-3.094065857E-1,9.544461423E0
6.797556125E0,-4.519401855E0,-8.494834900E0,-1.252894592E-1,9.623040609E0
6.807492125E0,-4.650529175E0,-8.487200775E0,-3.397933960E-2,9.677869249E0
6.817428125E0,-4.770579529E0,-8.476423187E0,-6.870712280E-2,9.726916251E0
6.827363125E0,-4.824766846E0,-8.477171631E0,-1.495390320E-1,9.755161500E0
6.837299125E0,-4.802014160E0,-8.456963654E0,-2.775228882E-1,9.729161998E0
6.847235125E0,-4.734803925E0,-8.430169373E0,-4.077520752E-1,9.677416267E0
6.857170125E0,-4.678071899E0,-8.392896881E0,-5.147795105E-1,9.622373548E0
6.867106125E0,-4.657863922E0,-8.297694855E0,-5.297483826E-1,9.530376150E0
6.877042125E0,-4.747677155E0,-8.186326447E0,-4.583468628E-1,9.474516394E0
6.886977125E0,-4.971611481E0,-8.153694305E0,-2.899470520E-1,9.554251453E0
6.896913125E0,-5.267396393E0,-8.284073181E0,-8.532257080E-3,9.816893909E0
6.906849125E0,-5.397625580E0,-8.516390076E0,3.448828125E-1,1.008871677E1
6.916784125E0,-5.358407135E0,-8.710536346E0,4.507127380E-1,1.023665533E1
6.926720125E0,-5.201383667E0,-8.722960510E0,1.408570862E-1,1.015698148E1
6.936656125E0,-5.069807281E0,-8.568631439E0,-3.450325012E-1,9.962100082E0
6.946591125E0,-4.924309845E0,-8.490942993E0,-5.448669434E-1,9.830657168E0
6.956527125E0,-4.849914551E0,-8.615783386E0,-2.956352234E-1,9.891450586E0
6.966463125E0,-4.743036804E0,-8.827592926E0,-1.511856079E-2,1.002112886E1
6.976399125E0,-4.640200653E0,-8.954678650E0,-1.728904724E-1,1.008700267E1
6.986334125E0,-4.526137848E0,-8.903485107E0,-7.914042664E-1,1.001919615E1
6.996270125E0,-4.488266602E0,-8.810528412E0,-1.360969849E0,9.981091469E0
7.006206125E0,-4.558021545E0,-8.783434753E0,-1.365610199E0,9.989453323E0
7.016141125E0,-4.745282135E0,-8.800499268E0,-9.970765686E-1,1.004791777E1
7.026077125E0,-4.959187317E0,-8.791368256E0,-6.256988525E-1,1.011302100E1
7.036013125E0,-5.073998566E0,-8.679101715E0,-2.466870117E-1,1.005649653E1
7.045948125E0,-5.191653900E0,-8.454868011E0,-5.089416504E-2,9.921726338E0
7.055884125E0,-5.318589935E0,-8.220305786E0,6.436614990E-3,9.790856324E0
7.065820125E0,-5.376519470E0,-8.076155548E0,7.035369873E-3,9.702128609E0
7.075755125E0,-5.301675110E0,-8.006400604E0,-6.376739502E-2,9.602826453E0
7.085691125E0,-5.165158997E0,-8.005053406E0,-1.781295776E-1,9.528456204E0
7.095627125E0,-5.065017242E0,-8.090675354E0,-2.874023438E-1,9.549661117E0
7.105562125E0,-4.978796539E0,-8.122409363E0,-3.576063538E-1,9.533615848E0
7.115498125E0,-4.871918793E0,-8.018375702E0,-3.553610229E-1,9.389154545E0
7.125434125E0,-4.844226379E0,-7.953859863E0,-2.157014465E-1,9.315414272E0
7.135369125E0,-4.866679688E0,-8.004454651E0,-3.367996216E-2,9.367870611E0
7.145305125E0,-4.853207703E0,-8.149952087E0,5.328918457E-2,9.485683094E0
7.155241125E0,-4.840334473E0,-8.291557617E0,-3.218307495E-2,9.601031261E0
7.165176125E0,-4.824168091E0,-8.336913300E0,-2.884501648E-1,9.636385455E0
7.175112125E0,-4.794829102E0,-8.356073456E0,-5.508544922E-1,9.649755975E0
7.185048125E0,-4.771926727E0,-8.431516571E0,-7.234455872E-1,9.715200970E0
7.194984125E0,-4.795727234E0,-8.545429688E0,-7.138655090E-1,9.825119450E0
7.204919125E0,-4.832101593E0,-8.584797821E0,-6.162684631E-1,9.870549440E0
7.214855125E0,-4.911885681E0,-8.494535522E0,-4.713697815E-1,9.823743897E0
7.224791125E0,-5.025649109E0,-8.294850769E0,-3.597019958E-1,9.705209105E0
7.234726125E0,-5.129233704E0,-8.140521698E0,-2.254312134E-1,9.624341595E0
7.244662125E0,-5.191504211E0,-8.116421814E0,-5.463638306E-2,9.634884751E0
7.254598125E0,-5.183720398E0,-8.180787964E0,7.379653931E-2,9.685127506E0
7.264533125E0,-5.115612030E0,-8.274343414E0,4.445755005E-2,9.728115021E0
7.274469125E0,-5.005890198E0,-8.323441315E0,-1.869612122E-1,9.714605833E0
7.284405125E0,-4.880750427E0,-8.290958862E0,-4.418811035E-1,9.631042649E0
7.294340125E0,-4.818479919E0,-8.255332947E0,-5.519023132E-1,9.574594872E0
7.304276125E0,-4.862937469E0,-8.292006683E0,-5.105882263E-1,9.626330350E0
7.314212125E0,-4.948559418E0,-8.360414429E0,-3.797602844E-1,9.722601895E0
7.324147125E0,-5.043013000E0,-8.395740967E0,-2.659968567E-1,9.797509930E0
7.334083125E0,-5.111869812E0,-8.310268707E0,-2.475851440E-1,9.759768305E0
7.344019125E0,-5.175038452E0,-8.167166290E0,-3.113525391E-1,9.673705009E0
7.353954125E0,-5.260959778E0,-8.039332123E0,-3.017724609E-1,9.612472387E0
7.363890125E0,-5.348527679E0,-8.002209320E0,-1.683998108E-1,9.626549789E0
7.373826125E0,-5.495372314E0,-8.120613098E0,7.259902954E-2,9.805546623E0
7.383762125E0,-5.551505585E0,-8.247399445E0,2.694396973E-1,9.945421540E0
7.393697125E0,-5.423671417E0,-8.285270691E0,2.728825378E-1,9.906381122E0
7.403633125E0,-5.095853119E0,-8.174201660E0,1.074765015E-1,9.633111802E0
7.413569125E0,-5.157973938E0,-8.274193726E0,-4.311035156E-2,9.750324890E0
7.423504125E0,-5.084776154E0,-8.226293335E0,-1.534309387E-1,9.672145140E0
7.433440125E0,-5.075495453E0,-8.256829834E0,-4.340972900E-2,9.692150298E0
7.443376125E0,-5.163063354E0,-8.394543457E0,1.712438965E-1,9.856718903E0
7.453311125E0,-5.279072113E0,-8.591533813E0,2.760260010E-1,1.008757880E1
7.463247125E0,-5.391338654E0,-8.712182922E0,2.586621094E-1,1.024868625E1
7.473183125E0,-5.317093048E0,-8.670120392E0,1.293310547E-1,1.017148920E1
7.483118125E0,-5.614075470E0,-8.734785919E0,-2.829116821E-2,1.038340642E1
7.493054125E0,-5.788313141E0,-8.587641907E0,-2.401007080E-1,1.035904488E1
7.502990125E0,-6.009702759E0,-8.551267548E0,-3.543132019E-1,1.045783160E1
7.512925125E0,-6.372099152E0,-8.613687744E0,-3.803590393E-1,1.072119103E1
7.522861125E0,-6.583459625E0,-8.719817047E0,-3.993695068E-1,1.093328157E1
7.532797125E0,-7.163204041E0,-9.081464996E0,-4.460723877E-1,1.157512329E1
7.542732125E0,-7.387587433E0,-9.212592316E0,-6.285429382E-1,1.182553895E1
7.552668125E0,-7.267237701E0,-9.254654846E0,-7.640112305E-1,1.179173835E1
7.562604125E0,-8.023465118E0,-9.790390778E0,-7.068301392E-1,1.267782919E1
7.572539125E0,-8.101153564E0,-9.972561951E0,-3.939807129E-1,1.285441176E1
7.582475125E0,-8.801247711E0,-1.070064789E1,-1.796264648E-2,1.385518492E1
7.592411125E0,-8.966354370E0,-1.095272369E1,1.833686829E-1,1.415596309E1
7.602345917E0,-8.368048553E0,-1.088730972E1,6.481521606E-2,1.373178614E1
7.612281917E0,-7.276069336E0,-1.075199112E1,-3.703298950E-1,1.298782669E1
7.622217917E0,-5.605692902E0,-1.056458084E1,-7.882608032E-1,1.198563792E1
7.632153917E0,-3.624113617E0,-1.021056702E1,-1.015338593E0,1.088213172E1
7.642088917E0,-2.064207458E0,-9.749675446E0,-1.111738129E0,1.002761614E1
7.652024917E0,-1.449136505E0,-9.300160217E0,-1.202748871E0,9.488918881E0
7.661960917E0,-1.487007751E0,-8.928333435E0,-1.314865723E0,9.146321766E0
7.671895917E0,-1.816322937E0,-8.791517944E0,-1.287173309E0,9.068992883E0
7.681831917E0,-2.322570190E0,-8.797206116E0,-6.783892822E-1,9.123890604E0
7.691767917E0,-2.452649689E0,-8.640332336E0,4.191284180E-2,8.981792141E0
7.701702917E0,-3.443439331E0,-8.664731598E0,-1.332229614E-2,9.323895408E0
7.711638917E0,-3.544479218E0,-8.214467926E0,-6.996450806E-1,8.973868701E0
7.721574917E0,-3.840563507E0,-7.979007568E0,-1.139580231E0,8.928221151E0
7.731509917E0,-3.841012573E0,-7.999514923E0,-1.184037781E0,8.952517080E0
7.741445917E0,-3.861220551E0,-8.272547150E0,-4.957690430E-1,9.142748352E0
7.751381917E0,-4.116439819E0,-8.687184906E0,2.210902405E-1,9.615671546E0
7.761316917E0,-4.533622284E0,-9.154513092E0,3.607498169E-1,1.022198520E1
7.771252917E0,-5.021607513E0,-9.849966888E0,-3.637435913E-2,1.105620698E1
7.781188917E0,-5.006488953E0,-1.047686325E1,-4.680766296E-1,1.162104517E1
7.791123917E0,-4.774022369E0,-1.086126389E1,-7.900570679E-1,1.189043872E1
7.801059917E0,-4.485422516E0,-1.088281906E1,-8.415499878E-1,1.180097336E1
7.810995917E0,-4.477638702E0,-1.069660629E1,-8.851094055E-1,1.162970564E1
7.820931917E0,-4.721781006E0,-1.050799850E1,-8.770262146E-1,1.155345937E1
7.830866917E0,-4.855602722E0,-1.035007690E1,-1.128952332E0,1.148805915E1
7.840802917E0,-4.884792023E0,-1.006027954E1,-1.242715759E0,1.125232243E1
7.850738917E0,-4.954996033E0,-9.738299103E0,-9.363029480E-1,1.096645423E1
7.860673917E0,-5.009482727E0,-9.564809875E0,-1.040486298E0,1.084726311E1
7.870609917E0,-5.156027985E0,-9.463320923E0,-1.771865387E0,1.092147309E1
7.880545917E0,-5.238805847E0,-9.276210022E0,-2.126028900E0,1.086338612E1
7.890480917E0,-4.837490387E0,-9.256750488E0,-2.399360504E0,1.071660738E1
7.900416917E0,-4.445455627E0,-9.141041107E0,-2.546803894E0,1.047887963E1
7.910352917E0,-4.503983917E0,-8.764424286E0,-2.524949341E0,1.017233372E1
7.920287917E0,-4.428690491E0,-8.346044312E0,-2.365830231E0,9.739964466E0
7.930223917E0,-4.185745697E0,-7.838150482E0,-1.986818390E0,9.105191779E0
7.940159917E0,-4.013004913E0,-7.388934631E0,-1.693428497E0,8.577194384E0
7.950094917E0,-3.948788452E0,-7.135811005E0,-1.556163940E0,8.302672771E0
7.960030917E0,-3.898043976E0,-7.002588043E0,-1.626667328E0,8.177837901E0
7.969966917E0,-3.932023315E0,-7.025041351E0,-1.874701538E0,8.265985676E0
7.979901917E0,-3.871698761E0,-7.276967468E0,-2.110311584E0,8.508685081E0
7.989837917E0,-3.586242371E0,-7.407645721E0,-2.219883728E0,8.524214523E0
7.999773917E0,-3.020419006E0,-7.407046967E0,-2.241887970E0,8.307426642E0
8.009709917E0,-2.466870117E0,-7.294930115E0,-2.306852875E0,8.038844677E0
8.019644917E0,-2.038760376E0,-7.151528320E0,-2.481689301E0,7.839622629E0
8.029580917E0,-1.784588928E0,-6.999294891E0,-2.597847748E0,7.676177404E0
8.039516917E0,-1.682201843E0,-6.884333954E0,-2.692750397E0,7.581211099E0
8.049451917E0,-1.637744293E0,-6.835685120E0,-2.885848846E0,7.598481492E0
8.059387917E0,-1.662293243E0,-6.838529205E0,-3.082240448E0,7.683027183E0
8.069323917E0,-1.699416046E0,-6.811285858E0,-3.332969055E0,7.771120425E0
8.079258917E0,-1.812730408E0,-6.732250214E0,-3.388204193E0,7.751716721E0
8.089194917E0,-1.981579285E0,-6.633006592E0,-3.256927185E0,7.650556032E0
8.099130917E0,-2.199825439E0,-6.505471802E0,-3.186423798E0,7.570580687E0
8.109065917E0,-2.483635254E0,-6.345155182E0,-3.263064423E0,7.554934003E0
8.119001917E0,-2.762804718E0,-6.123615875E0,-3.400778046E0,7.529744525E0
8.128937917E0,-2.993924103E0,-5.867348785E0,-3.533102875E0,7.474769510E0
8.138872917E0,-3.109184418E0,-5.626499634E0,-3.640878754E0,7.387863289E0
8.148808917E0,-3.128494263E0,-5.459896088E0,-3.795806580E0,7.348883536E0
8.158744917E0,-3.132236481E0,-5.399421844E0,-3.939208374E0,7.381193958E0
8.168679917E0,-3.315904541E0,-5.548212433E0,-4.110003204E0,7.659635139E0
8.178615917E0,-3.620670776E0,-5.910159760E0,-4.338278503E0,8.176790668E0
8.188551917E0,-3.905678101E0,-6.560257874E0,-4.585564270E0,8.906104899E0
8.198487917E0,-4.298161926E0,-7.371121674E0,-4.791236572E0,9.785886703E0
8.208422917E0,-4.748724976E0,-7.996371460E0,-5.118156738E0,1.061545448E1
8.218358917E0,-5.193150787E0,-8.383316803E0,-5.222639465E0,1.115906711E1
8.228294917E0,-6.043233032E0,-8.841963043E0,-5.394182739E0,1.199158803E1
8.238229917E0,-6.755152588E0,-8.873397675E0,-6.263724518E0,1.279075907E1
8.248165917E0,-6.904691620E0,-8.525670776E0,-6.807992706E0,1.291164564E1
8.258101917E0,-6.755601654E0,-8.191415863E0,-6.902446289E0,1.266417042E1
8.268036917E0,-6.498885498E0,-8.074059906E0,-6.720574493E0,1.235281659E1
8.277972917E0,-6.007756805E0,-8.141569519E0,-6.870861969E0,1.223057808E1
8.287908917E0,-5.361251221E0,-8.028853912E0,-6.654861145E0,1.172572755E1
8.297843917E0,-4.700525208E0,-7.701334991E0,-6.428681488E0,1.107851270E1
8.307779917E0,-4.079466705E0,-7.145091705E0,-6.468798065E0,1.046612309E1
8.317715917E0,-3.418291626E0,-6.459367676E0,-6.492149506E0,9.775282789E0
8.327650917E0,-2.733016663E0,-6.096073151E0,-6.459217987E0,9.292630679E0
8.337586917E0,-2.205513611E0,-6.322103119E0,-6.132896576E0,9.079961374E0
8.347522917E0,-1.888323212E0,-7.080126801E0,-5.258115692E0,9.018965611E0
8.357457917E0,-1.641785889E0,-8.089777222E0,-4.086352386E0,9.210767190E0
8.367393917E0,-1.565893707E0,-8.914113007E0,-3.401676178E0,9.668755588E0
8.377329917E0,-1.739233246E0,-9.864337006E0,-2.808310089E0,1.040272476E1
8.387264917E0,-2.168091431E0,-1.155387360E1,-2.247127075E0,1.196838317E1
8.397200917E0,-2.991229706E0,-1.377794861E1,-2.276316376E0,1.428148939E1
8.407136917E0,-4.005670166E0,-1.586086716E1,-2.795586548E0,1.659601773E1
8.417071917E0,-4.975503387E0,-1.717124222E1,-4.211941223E0,1.836702595E1
8.427007917E0,-6.326294403E0,-1.694506256E1,-6.012546844E0,1.906063655E1
8.436943917E0,-7.184459839E0,-1.417207901E1,-6.432872772E0,1.714194093E1
8.446879917E0,-6.590944061E0,-9.686357117E0,-4.956043854E0,1.272118031E1
8.456814917E0,-5.832022247E0,-6.224655762E0,-2.888243866E0,9.005596897E0
8.466750917E0,-4.697232056E0,-4.277205505E0,-1.508862305E0,6.529559049E0
8.476686917E0,-3.567980347E0,-4.021836548E0,-3.790118408E-1,5.389740527E0
8.486621917E0,-2.638114014E0,-4.573289795E0,6.477030945E-1,5.319224041E0
8.496557917E0,-1.612895966E0,-5.384902039E0,2.162852325E0,6.023000377E0
8.506493917E0,-9.819580078E-1,-6.362968140E0,3.216211853E0,7.196917657E0
8.516428917E0,-1.289568329E0,-7.095395050E0,2.841990051E0,7.751420827E0
8.526364917E0,-2.128124542E0,-7.560477905E0,2.002236328E0,8.105472876E0
8.536300917E0,-2.792892151E0,-7.819738770E0,1.590143280E0,8.454414033E0
8.546235917E0,-3.479813690E0,-8.068820801E0,1.571432190E0,8.926610306E0
8.556171917E0,-4.178710327E0,-8.420738983E0,1.756597137E0,9.563268193E0
8.566107917E0,-4.810247040E0,-8.717571716E0,1.894310760E0,1.013523293E1
8.576042917E0,-5.269492035E0,-8.948691101E0,1.811981964E0,1.054181661E1
8.585978917E0,-5.578748932E0,-9.193581848E0,1.622476044E0,1.087551449E1
8.595914250E0,-5.853876801E0,-9.456734619E0,1.384620667E0,1.120780432E1
8.605849250E0,-6.043532410E0,-9.573192444E0,1.129551086E0,1.137744186E1
8.615785250E0,-6.053112488E0,-9.627379761E0,7.586224365E-1,1.139746111E1
8.625721250E0,-5.506748657E0,-9.499246216E0,-1.075214081E0,1.103249948E1
8.635657250E0,-4.526287537E0,-9.209448853E0,-4.727469177E0,1.129823844E1
8.645592250E0,-3.752546539E0,-8.910819855E0,-6.124214630E0,1.144510030E1
8.655528250E0,-3.411555634E0,-9.050180054E0,-4.671784973E0,1.074104491E1
8.665464250E0,-3.437900848E0,-9.385333099E0,-1.862726440E0,1.016727050E1
8.675399250E0,-3.816014557E0,-9.345964966E0,6.866221619E-1,1.011832388E1
8.685335250E0,-4.397854614E0,-9.207053833E0,2.043700104E0,1.040613644E1
8.695271250E0,-4.711452484E0,-9.170829163E0,2.307900696E0,1.056542936E1
8.705206250E0,-4.826114044E0,-8.974886627E0,2.111808472E0,1.040671426E1
8.715142250E0,-4.797523499E0,-8.809480591E0,1.678459625E0,1.017056570E1
8.725078250E0,-4.488865356E0,-8.713230743E0,8.684939575E-1,9.839948370E0
8.735013250E0,-3.998934174E0,-8.483458557E0,-1.968406677E-1,9.380793669E0
8.744949250E0,-3.465892639E0,-8.240813141E0,-1.259929962E0,9.028335202E0
8.754885250E0,-3.363655243E0,-8.048014069E0,-1.537602539E0,8.857139979E0
8.764820250E0,-3.656147003E0,-7.939340057E0,-9.647438049E-1,8.793819538E0
8.774756250E0,-4.147874451E0,-7.899672546E0,4.056564331E-2,8.922518387E0
8.784692250E0,-4.547543335E0,-8.000562744E0,8.945397949E-1,9.246045428E0
8.794627250E0,-5.015769653E0,-8.192164307E0,1.281784515E0,9.690844792E0
8.804563250E0,-5.210814056E0,-8.298443298E0,1.108894043E0,9.861358441E0
8.814499250E0,-5.033432922E0,-8.397088165E0,6.827302551E-1,9.813901224E0
8.824434250E0,-4.791236572E0,-8.458759918E0,1.878593445E-1,9.723263772E0
8.834370250E0,-4.321962433E0,-8.454269257E0,-2.839595032E-1,9.499192646E0
8.844306250E0,-4.115990753E0,-8.573870544E0,-5.270539856E-1,9.525251802E0
8.854242250E0,-3.948489075E0,-8.483458557E0,-5.855822754E-1,9.375635534E0
8.864177250E0,-3.869004364E0,-8.429121552E0,-5.189707947E-1,9.289166571E0
8.874113250E0,-3.962859192E0,-8.482560425E0,-2.448907471E-1,9.365791788E0
8.884049250E0,-3.970044250E0,-8.569978638E0,1.721420288E-2,9.444897116E0
8.893984250E0,-3.942651215E0,-8.564140778E0,2.170486450E-1,9.430594678E0
8.903920250E0,-3.971840515E0,-8.557853851E0,2.438429260E-1,9.437787823E0
8.913856250E0,-3.852538605E0,-8.596174164E0,1.210981750E-1,9.420771132E0
8.923791250E0,-3.672163696E0,-8.490493927E0,-4.176315308E-2,9.250676597E0
8.933727250E0,-3.551065521E0,-8.296048279E0,-1.746867371E-1,9.025796299E0
8.943663250E0,-3.525319061E0,-8.086035004E0,-2.495310974E-1,8.824630436E0
8.953598250E0,-3.848347321E0,-8.077652435E0,-1.309776306E-1,8.948485967E0
8.963534250E0,-4.271966400E0,-8.154742126E0,-1.496887207E-3,9.205950158E0
8.973470250E0,-4.651876373E0,-8.388406219E0,5.493576050E-2,9.592097301E0
8.983405250E0,-4.938081207E0,-8.580905914E0,-9.879455566E-3,9.900337869E0
8.993341250E0,-5.069058838E0,-8.725056152E0,-1.842668152E-1,1.009236923E1
9.003277250E0,-5.176235962E0,-8.973689117E0,-3.465293884E-1,1.036535565E1
9.013212250E0,-5.289550323E0,-9.189839630E0,-4.544549561E-1,1.061315337E1
9.023148250E0,-5.212460632E0,-9.266031189E0,-6.215075684E-1,1.064966438E1
9.033084250E0,-5.091811523E0,-9.138197021E0,-7.830216980E-1,1.049029611E1
9.043019250E0,-5.080584869E0,-8.831784210E0,-7.737409973E-1,1.021819114E1
9.052955250E0,-5.150639191E0,-8.585546265E0,-5.486091614E-1,1.002704646E1
9.062891250E0,-5.531896362E0,-8.560847626E0,-1.323248291E-1,1.019350280E1
9.072827250E0,-5.717809753E0,-8.563542023E0,1.136137390E-1,1.029759722E1
9.082762250E0,-5.974825287E0,-8.633895721E0,2.125579834E-1,1.050180334E1
9.092698250E0,-5.952821045E0,-8.512198792E0,1.330732727E-1,1.038803712E1
9.102634250E0,-6.643484802E0,-8.902437286E0,-1.413061523E-1,1.110897148E1
9.112569250E0,-5.891897736E0,-8.373437347E0,-8.080197144E-1,1.027043367E1
9.122505250E0,-6.881789246E0,-9.303303680E0,-1.322050781E0,1.164724435E1
9.132441250E0,-7.140900421E0,-9.791588287E0,-1.681902466E0,1.223505030E1
9.142376250E0,-5.957311707E0,-9.774972839E0,-1.920955353E0,1.160731348E1
9.152312250E0,-6.760840759E0,-1.101229980E1,-1.784289551E0,1.304466956E1
9.162248250E0,-6.267766113E0,-1.099313965E1,-1.825603638E0,1.278541513E1
9.172183250E0,-5.847140808E0,-1.043031006E1,-1.685045929E0,1.207558708E1
9.182119250E0,-5.219496002E0,-9.610914001E0,-1.304387512E0,1.101427407E1
9.192055250E0,-5.585784302E0,-9.419611816E0,-2.089654541E-1,1.095325247E1
9.201990250E0,-7.607929230E0,-1.004575974E1,7.418572998E-1,1.262332080E1
9.211926250E0,-8.120164032E0,-9.835297394E0,9.924362183E-1,1.279277407E1
9.221862250E0,-6.938371582E0,-9.231153717E0,8.342152405E-1,1.157804449E1
9.231797250E0,-5.299429779E0,-8.727900238E0,5.307962036E-1,1.022457545E1
9.241733250E0,-5.437891846E0,-9.391320648E0,4.905299377E-1,1.086315750E1
9.251669250E0,-4.748275909E0,-9.828711090E0,1.074765015E-1,1.091609990E1
9.261604250E0,-2.744842072E0,-9.838889923E0,-3.519181824E-1,1.022065357E1
9.271540250E0,-1.249601440E0,-1.001761826E1,-5.857319641E-1,1.011223325E1
9.281476250E0,-1.116228790E0,-1.045156586E1,-4.860392761E-1,1.052223502E1
9.291412250E0,-1.354233856E0,-1.078791641E1,-5.258564758E-1,1.088529351E1
9.301347250E0,-2.027384033E0,-1.135972733E1,-7.590715027E-1,1.156416363E1
9.311283250E0,-2.709665222E0,-1.216924393E1,-1.653760986E0,1.257647442E1
9.321219250E0,-2.935844879E0,-1.220576797E1,-1.649120636E0,1.266173590E1
9.331154250E0,-2.594105530E0,-1.199844910E1,-9.951306152E-1,1.231594289E1
9.341090250E0,-2.474803619E0,-1.188603287E1,-9.421408081E-1,1.217744060E1
9.351026250E0,-3.117117920E0,-1.147199387E1,-7.557783508E-1,1.191193806E1
9.360961250E0,-3.873644714E0,-1.076621155E1,-3.128494263E-1,1.144614823E1
9.370897250E0,-4.437971191E0,-1.001911514E1,-1.359173584E-1,1.095886536E1
9.380833250E0,-4.755910034E0,-9.572743378E0,-3.695814514E-1,1.069545167E1
9.390768250E0,-4.903802490E0,-9.654323730E0,-7.626640320E-1,1.085517858E1
9.400704250E0,-5.174140320E0,-1.009650421E1,-3.469784546E-1,1.135039732E1
9.410640250E0,-5.196893005E0,-1.016131943E1,1.169068909E-1,1.141375384E1
9.420575250E0,-5.055137787E0,-9.623487854E0,-2.826123047E-1,1.087408875E1
9.430511250E0,-4.961432648E0,-9.063053284E0,-1.031504974E0,1.038358085E1
9.440447250E0,-4.854105835E0,-8.724158020E0,-1.613644409E0,1.011321536E1
9.450383250E0,-4.520599365E0,-8.450077972E0,-1.812880096E0,9.753264613E0
9.460318250E0,-4.055366821E0,-8.131390686E0,-1.761087799E0,9.255643942E0
9.470254250E0,-3.733835449E0,-7.866441650E0,-1.859582977E0,8.903958684E0
9.480190250E0,-3.554358673E0,-7.704927521E0,-2.032323761E0,8.725234298E0
9.490125250E0,-3.322939911E0,-7.674840088E0,-1.834884338E0,8.562236890E0
9.500061250E0,-3.255430298E0,-7.656428375E0,-1.368005219E0,8.431498097E0
9.509997250E0,-3.060984650E0,-7.557184753E0,-1.016087036E0,8.216635643E0
9.519932250E0,-2.479294281E0,-7.450905762E0,-1.084943848E0,7.927168470E0
9.529868250E0,-1.767524414E0,-7.371421051E0,-1.361867981E0,7.701731965E0
9.539804250E0,-1.136586456E0,-7.165299683E0,-1.553319855E0,7.419309327E0
9.549739250E0,-6.258485413E-1,-6.839427338E0,-1.602417755E0,7.052460235E0
9.559675250E0,-2.260299683E-1,-6.544091492E0,-1.836979980E0,6.800788075E0
9.569611250E0,-3.472778320E-2,-6.207591248E0,-1.884880371E0,6.487539528E0
9.579546250E0,1.152603149E-2,-5.949827271E0,-1.729054413E0,6.195983099E0
9.589482250E0,-6.780899048E-2,-5.885760498E0,-1.920356598E0,6.191489656E0
9.599418792E0,-4.152365112E-1,-5.847739563E0,-2.308050385E0,6.300442519E0
9.609353792E0,-1.000369720E0,-5.854625244E0,-2.763852539E0,6.551050083E0
9.619289792E0,-1.653910675E0,-5.879174194E0,-3.120261383E0,6.858289935E0
9.629225792E0,-2.252066803E0,-5.834267578E0,-3.484903107E0,7.159262024E0
9.639160792E0,-2.708767090E0,-5.699398041E0,-3.804787903E0,7.368647648E0
9.649096792E0,-2.967728577E0,-5.596711578E0,-3.918251953E0,7.448710745E0
9.659032792E0,-3.271297302E0,-5.775439911E0,-3.867657166E0,7.682178347E0
9.668968792E0,-3.629801788E0,-6.105503540E0,-3.801494751E0,8.056301685E0
9.678903792E0,-3.912563782E0,-6.483018494E0,-3.885320435E0,8.510781340E0
9.688839792E0,-4.174519043E0,-6.841822357E0,-4.279750214E0,9.085890397E0
9.698775792E0,-4.276307373E0,-7.175179138E0,-4.876559143E0,9.672167776E0
9.708710792E0,-4.204007721E0,-7.531438293E0,-5.435496826E0,1.019513950E1
9.718646792E0,-4.283941498E0,-7.861501923E0,-5.913452911E0,1.072959890E1
9.728582792E0,-4.583468628E0,-8.040230255E0,-6.281387787E0,1.118522775E1
9.738517792E0,-4.870571594E0,-8.079748077E0,-6.717131653E0,1.158121990E1
9.748453792E0,-5.312003632E0,-7.946974182E0,-7.241191864E0,1.199194066E1
9.758389792E0,-6.017336884E0,-7.690707092E0,-7.461683350E0,1.228950923E1
9.768324792E0,-6.681954803E0,-7.528594208E0,-7.393275604E0,1.248954663E1
9.778260792E0,-6.895261230E0,-7.495662689E0,-7.495662689E0,1.264573231E1
9.788196792E0,-6.827003174E0,-7.517217865E0,-7.240593109E0,1.247167693E1
9.798131792E0,-6.351591797E0,-7.301067352E0,-6.984775085E0,1.193462969E1
9.808067792E0,-5.517825623E0,-6.939120026E0,-7.191195831E0,1.141538803E1
9.818003792E0,-4.692591705E0,-6.952741699E0,-7.393874359E0,1.118169987E1
9.827939792E0,-4.158801727E0,-7.307354279E0,-7.141648865E0,1.103160038E1
9.837874792E0,-3.928879852E0,-8.122708740E0,-6.576723633E0,1.116547303E1
9.847810792E0,-3.617677002E0,-9.299561462E0,-5.843099213E0,1.156335759E1
9.857746792E0,-3.253334656E0,-1.057311310E1,-5.012925568E0,1.214513605E1
9.867681792E0,-3.152594147E0,-1.260468842E1,-3.672313385E0,1.350195932E1
9.877617792E0,-3.256029053E0,-1.568049225E1,-1.662592621E0,1.610104893E1
9.887553792E0,-3.169209595E0,-1.846919312E1,-1.930984497E-2,1.873913970E1
9.897488792E0,-2.603685608E0,-1.931628159E1,-3.836521912E-1,1.949474550E1
9.907424792E0,-2.840343475E0,-1.802821014E1,-3.628155212E0,1.860772480E1
9.917360792E0,-3.660637665E0,-1.436038742E1,-4.935536499E0,1.561987566E1
9.927295792E0,-3.526516571E0,-9.860145721E0,-3.598217468E0,1.107275764E1
9.937231792E0,-2.979553986E0,-5.779631195E0,-2.597248993E0,7.001969797E0
9.947167792E0,-2.559377747E0,-3.398682404E0,-1.530118103E0,4.521362399E0
9.957102792E0,-2.014810181E0,-3.002156982E0,-8.217910767E-2,3.616512134E0
9.967038792E0,-1.623972931E0,-4.166735229E0,1.794917450E0,4.818786072E0
9.976974792E0,-1.673519897E0,-5.712570648E0,3.414848785E0,6.862603331E0
9.986909792E0,-2.284249878E0,-6.612798615E0,3.353027344E0,7.758201814E0
9.996845792E0,-3.078498230E0,-7.338639221E0,2.741698608E0,8.417225685E0
1.000678179E1,-3.630550232E0,-8.323441315E0,2.325264587E0,9.373762623E0
1.001671779E1,-4.176015930E0,-9.167985077E0,2.088307343E0,1.028844434E1
1.002665279E1,-4.728067932E0,-9.558373260E0,2.099234619E0,1.086848249E1
1.003658879E1,-5.038821716E0,-9.521849213E0,2.014510803E0,1.095963460E1
1.004652479E1,-5.136867828E0,-9.320068817E0,1.806443481E0,1.079418046E1
1.005645979E1,-5.018014984E0,-8.984915771E0,1.647474060E0,1.042225295E1
1.006639579E1,-4.765340424E0,-8.747509460E0,1.585652618E0,1.008670835E1
1.007633179E1,-4.429588623E0,-8.800349579E0,1.504671021E0,9.966516089E0
1.008626679E1,-4.079766083E0,-8.943451996E0,1.385369110E0,9.927188548E0
1.009620279E1,-3.738176422E0,-9.140442352E0,1.133592682E0,9.940155015E0
1.010613879E1,-3.306474152E0,-9.365424500E0,6.448590088E-1,9.952878504E0
1.011607379E1,-2.660118256E0,-9.560468903E0,-1.008901978E0,9.974802152E0
1.012600979E1,-1.692979431E0,-9.492510223E0,-5.539530487E0,1.112026653E1
1.013594579E1,-1.651815033E0,-9.238488464E0,-6.831194458E0,1.160790161E1
1.014588079E1,-2.490670624E0,-9.264384613E0,-4.404141541E0,1.055598054E1
1.015581679E1,-3.717519379E0,-9.157506866E0,-1.138682098E0,9.948692339E0
1.016575279E1,-4.744982758E0,-8.921747131E0,1.087937622E0,1.016346602E1
1.017568779E1,-5.403014374E0,-8.863967285E0,1.980531464E0,1.056811172E1
1.018562379E1,-5.583538971E0,-8.663384399E0,2.199825439E0,1.053894533E1
1.019555979E1,-5.259462891E0,-8.268056488E0,2.265538788E0,1.005760280E1
1.020549479E1,-4.471202087E0,-7.985144806E0,1.897304535E0,9.346333515E0
1.021543079E1,-4.051923981E0,-7.915988617E0,1.159039764E0,8.967961692E0
1.022536679E1,-4.030069427E0,-8.118218079E0,1.597178650E-1,9.064901222E0
1.023530279E1,-3.888164520E0,-8.265212402E0,-8.605604553E-1,9.174536702E0
1.024523779E1,-3.782035217E0,-8.230933685E0,-1.337618408E0,9.156488559E0
1.025517379E1,-3.776047668E0,-8.269403687E0,-1.106199646E0,9.157797278E0
1.026510979E1,-3.974085846E0,-8.514893188E0,-5.803431702E-1,9.414539953E0
1.027504479E1,-4.305646362E0,-8.759634247E0,-2.948867798E-2,9.760668641E0
1.028498079E1,-4.638853455E0,-8.901539154E0,4.619393921E-1,1.004837045E1
1.029491679E1,-4.636907501E0,-8.850794678E0,6.973997498E-1,1.001617911E1
1.030485179E1,-4.201912079E0,-8.593779144E0,5.957611084E-1,9.584572833E0
1.031478779E1,-3.583098907E0,-8.244106293E0,2.941383362E-1,8.993909256E0
1.032472379E1,-3.248993683E0,-8.139922943E0,-3.382965088E-2,8.764442362E0
1.033465879E1,-3.223696289E0,-8.140821075E0,-2.793191528E-1,8.760319899E0
1.034459479E1,-3.268453217E0,-8.190517731E0,-3.541635132E-1,8.825689714E0
1.035453079E1,-3.464994507E0,-8.337512054E0,-2.457888794E-1,9.032203849E0
1.036446579E1,-3.572920074E0,-8.538843384E0,-1.203497314E-1,9.257002120E0
1.037440179E1,-3.615431671E0,-8.689130859E0,-7.499404907E-2,9.411586761E0
1.038433779E1,-3.736829224E0,-8.759484558E0,-9.505233765E-2,9.523733371E0
1.039427379E1,-3.844904480E0,-8.901090088E0,-1.981878662E-1,9.698039680E0
1.040420879E1,-4.051774292E0,-9.032217407E0,-3.736230469E-1,9.906433283E0
1.041414479E1,-4.323459320E0,-9.093290405E0,-5.897735596E-1,1.008603310E1
1.042408079E1,-4.638254700E0,-9.016051025E0,-7.973918152E-1,1.017046786E1
1.043401579E1,-4.970413971E0,-8.928632812E0,-8.120613098E-1,1.025109470E1
1.044395179E1,-5.323529663E0,-8.896150360E0,-5.263055420E-1,1.038067709E1
1.045388779E1,-5.605094147E0,-8.890611877E0,-1.889071655E-1,1.051169567E1
1.046382279E1,-5.703140259E0,-8.894354095E0,1.109193420E-1,1.056634500E1
1.047375879E1,-5.769751740E0,-8.923244019E0,2.715353394E-1,1.062958374E1
1.048369479E1,-5.695506134E0,-8.924740906E0,1.450483704E-1,1.058824015E1
1.049362979E1,-5.469176788E0,-8.962462463E0,-4.745132446E-2,1.049951807E1
1.050356579E1,-5.404960327E0,-9.030271454E0,4.790039062E-3,1.052423021E1
1.051350179E1,-5.481750641E0,-9.041049042E0,1.402583313E-1,1.057401675E1
1.052343679E1,-5.597010956E0,-9.083111572E0,6.631210327E-2,1.066929448E1
1.053337279E1,-5.453758850E0,-9.175319824E0,-4.625381470E-1,1.068381584E1
1.054330879E1,-5.241649933E0,-9.328601074E0,-1.138831787E0,1.076079132E1
1.055324379E1,-6.291865997E0,-1.029065048E1,-1.325493622E0,1.213433140E1
1.056317979E1,-6.325096893E0,-1.071172485E1,-1.171613617E0,1.249482207E1
1.057311579E1,-5.667813721E0,-1.095586716E1,-9.225315857E-1,1.236956758E1
1.058305179E1,-5.378914490E0,-1.105570953E1,-7.222480774E-1,1.231596836E1
1.059298679E1,-5.511987762E0,-1.109477829E1,-3.140469360E-1,1.239252758E1
1.060292262E1,-5.512736206E0,-1.079884369E1,2.894979858E-1,1.212802929E1
1.061285862E1,-7.234755249E0,-1.134386032E1,1.039438477E0,1.349463904E1
1.062279362E1,-7.504344635E0,-1.115345627E1,1.400637360E0,1.351578929E1
1.063272962E1,-6.803651733E0,-1.064496368E1,1.270857239E0,1.269724407E1
1.064266562E1,-6.799460449E0,-1.084419937E1,9.889933777E-1,1.283773463E1
1.065260063E1,-5.896388397E0,-1.104717728E1,4.748126221E-1,1.253127962E1
1.066253662E1,-3.014581146E0,-1.050036438E1,-1.800755310E-1,1.092601386E1
1.067247262E1,-1.416654053E0,-1.020502853E1,-6.629713440E-1,1.032419716E1
1.068240762E1,-6.207591248E-1,-1.006641678E1,-8.060737610E-1,1.011769952E1
1.069234363E1,-1.384620667E-1,-1.001267853E1,-6.915618896E-1,1.003748778E1
1.070227962E1,3.248245239E-2,-1.033870056E1,-6.988966370E-1,1.036234727E1
1.071221462E1,-1.907034302E-1,-1.081545914E1,-7.607180786E-1,1.084385615E1
1.072215062E1,-9.833052063E-1,-1.128697861E1,-9.069639587E-1,1.136597373E1
1.073208663E1,-1.704355774E0,-1.148546585E1,-1.588945770E0,1.171944978E1
1.074202162E1,-1.950144653E0,-1.110959747E1,-1.523382111E0,1.138186774E1
1.075195762E1,-2.287093964E0,-1.094269455E1,-8.321195984E-1,1.121007519E1
1.076189362E1,-3.138972473E0,-1.074031540E1,-1.270857239E-1,1.119033841E1
1.077182962E1,-3.772155762E0,-1.003692810E1,5.548960876E-1,1.073671246E1
1.078176462E1,-4.237238617E0,-9.453890533E0,6.465055847E-1,1.038018337E1
1.079170062E1,-4.660258942E0,-9.095386047E0,1.972897339E-1,1.022169184E1
1.080163662E1,-4.832101593E0,-9.051227875E0,-4.625381470E-1,1.027072896E1
1.081157163E1,-4.733606415E0,-9.290729828E0,-1.167422333E0,1.049226216E1
1.082150762E1,-4.572840729E0,-9.470056915E0,-1.179696808E0,1.058227456E1
1.083144362E1,-4.284240875E0,-9.407487030E0,-4.836442566E-1,1.034840296E1
1.084137862E1,-3.916006622E0,-9.193432159E0,-6.162684631E-1,1.001169764E1
1.085131463E1,-3.965254211E0,-9.037905579E0,-1.246757355E0,9.947933560E0
1.086125062E1,-4.044888611E0,-8.726852417E0,-1.600621490E0,9.750952063E0
1.087118562E1,-3.964356079E0,-8.202492828E0,-1.862277374E0,9.298660373E0
1.088112162E1,-3.907025299E0,-7.783813477E0,-2.091001740E0,8.956834664E0
1.089105763E1,-3.814817047E0,-7.700287170E0,-1.985620880E0,8.819860650E0
1.090099262E1,-3.713328094E0,-7.931107178E0,-1.481768646E0,8.881830044E0
1.091092862E1,-3.667523346E0,-8.246201935E0,-1.159788208E0,9.099213292E0
1.092086462E1,-3.628604279E0,-8.435707855E0,-1.259031830E0,9.268931825E0
1.093080063E1,-3.583547974E0,-8.508306885E0,-1.501377869E0,9.353461265E0
1.094073562E1,-3.319048004E0,-8.502019958E0,-1.548230438E0,9.257291208E0
1.095067162E1,-2.789449310E0,-8.318651276E0,-1.377884674E0,8.881416141E0
1.096060762E1,-1.781744843E0,-7.800129547E0,-1.542242889E0,8.148321837E0
1.097054263E1,-8.656498718E-1,-7.135811005E0,-1.657054138E0,7.376650786E0
1.098047862E1,-2.408491516E-1,-6.560557251E0,-1.663341064E0,6.772416353E0
1.099041462E1,8.951385498E-2,-6.112688599E0,-1.810185699E0,6.375715403E0
1.100034962E1,1.501377869E-1,-5.891897736E0,-2.079026642E0,6.249748160E0
1.101028563E1,-9.759704590E-2,-5.886059875E0,-2.316133575E0,6.326112612E0
1.102022162E1,-5.105882263E-1,-6.039041748E0,-2.543660431E0,6.572741738E0
1.103015662E1,-1.030008087E0,-6.192472687E0,-2.762505341E0,6.858503510E0
1.104009262E1,-1.571731567E0,-6.302194519E0,-2.872227173E0,7.101949367E0
1.105002863E1,-1.992955627E0,-6.309678955E0,-3.013832703E0,7.270977115E0
1.105996462E1,-2.214045868E0,-6.205944672E0,-3.211122437E0,7.329874192E0
1.106989962E1,-2.196532288E0,-6.054309998E0,-3.328029327E0,7.249496730E0
1.107983562E1,-2.130070496E0,-5.967789917E0,-3.146905975E0,7.074937033E0
1.108977163E1,-2.033221893E0,-5.968688049E0,-3.250789948E0,7.094142907E0
1.109970662E1,-1.955982513E0,-6.054309998E0,-3.589086456E0,7.304935231E0
1.110964262E1,-2.001338196E0,-6.214626617E0,-3.996389465E0,7.654937448E0
1.111957862E1,-2.183209991E0,-6.523584137E0,-4.555626526E0,8.250896248E0
1.112951362E1,-2.556833038E0,-7.130122833E0,-5.233866119E0,9.207029997E0
1.113944962E1,-3.317102051E0,-7.857909393E0,-5.817652130E0,1.032448460E1
1.114938562E1,-4.252207489E0,-8.564889221E0,-6.759044495E0,1.170996492E1
1.115932062E1,-5.267995148E0,-9.229207764E0,-7.849676514E0,1.321164146E1
1.116925662E1,-6.578968964E0,-9.755363617E0,-8.788823547E0,1.468650303E1
1.117919262E1,-7.975415039E0,-9.933792572E0,-9.331295471E0,1.579115433E1
1.118912762E1,-9.186396790E0,-9.650880890E0,-8.997040558E0,1.607719275E1
1.119906362E1,-9.591903534E0,-9.022637329E0,-8.208630066E0,1.551754508E1
1.120899962E1,-8.644224243E0,-8.115823059E0,-7.639812927E0,1.410517417E1
1.121893562E1,-7.040608978E0,-7.097640381E0,-7.568112030E0,1.253885934E1
1.122887062E1,-5.507946167E0,-6.219716034E0,-7.840096436E0,1.142319792E1
1.123880662E1,-4.026177521E0,-5.555397491E0,-7.672594757E0,1.029277693E1
1.124874263E1,-3.075504456E0,-5.525908813E0,-6.851402435E0,9.323953625E0
1.125867762E1,-2.587219849E0,-6.442303162E0,-5.407055969E0,8.799615379E0
1.126861362E1,-2.365381165E0,-7.986192627E0,-3.569177856E0,9.061640652E0
1.127854962E1,-2.136507111E0,-1.019455032E1,-1.705403595E0,1.055471081E1
1.128848462E1,-2.126927032E0,-1.324625427E1,-1.769320679E-1,1.341709267E1
1.129842062E1,-2.726879425E0,-1.717243973E1,8.644523621E-1,1.740907337E1
1.130835662E1,-2.888543243E0,-1.972283615E1,1.255439301E0,1.997273331E1
1.131829163E1,-2.794089661E0,-2.075089828E1,6.601272583E-2,2.093826818E1
1.132822762E1,-3.046764221E0,-1.943947540E1,-3.256777496E0,1.994448735E1
1.133816362E1,-3.859573975E0,-1.422611664E1,-6.637497253E0,1.616586143E1
1.134809962E1,-3.526815948E0,-8.472082214E0,-5.212460632E0,1.055387861E1
1.135803462E1,-2.133064270E0,-4.317322083E0,-3.040177917E0,5.694902538E0
1.136797062E1,-6.809339905E-1,-2.639610901E0,4.083508301E-1,2.756441040E0
1.137790662E1,6.297404480E-1,-3.234773254E0,4.289479980E0,5.409248519E0
1.138784162E1,2.192939758E-1,-4.262685699E0,5.423521729E0,6.901678576E0
1.139777762E1,-9.806108093E-1,-5.494174805E0,4.093238068E0,6.921138073E0
1.140771362E1,-1.592388611E0,-7.002438354E0,3.214415588E0,7.867802233E0
1.141764862E1,-1.836680603E0,-8.394543457E0,2.818638611E0,9.043587734E0
1.142758462E1,-2.146985321E0,-9.621092834E0,2.742596741E0,1.023214592E1
1.143752062E1,-2.785856781E0,-1.033226395E1,2.843636627E0,1.107262144E1
1.144745562E1,-3.535198517E0,-1.042357407E1,2.712808685E0,1.133613055E1
1.145739162E1,-3.982169037E0,-1.050710037E1,2.430346069E0,1.149623462E1
1.146732762E1,-4.149221649E0,-1.066142944E1,2.229463806E0,1.165558351E1
1.147726263E1,-4.126019897E0,-1.048285080E1,2.166145477E0,1.147198271E1
1.148719862E1,-3.960913239E0,-9.918973389E0,2.164648590E0,1.089773235E1
1.149713462E1,-3.763024750E0,-9.265432434E0,1.949545898E0,1.018868601E1
1.150707062E1,-3.613635406E0,-8.903784485E0,1.510658569E0,9.727169594E0
1.151700563E1,-3.598067780E0,-9.082063751E0,1.019080811E0,9.821837884E0
1.152694162E1,-3.714076538E0,-9.460027771E0,4.951702881E-1,1.017505202E1
1.153687762E1,-3.989952850E0,-9.716594238E0,-1.254990234E0,1.057860708E1
1.154681262E1,-4.279001770E0,-9.425000610E0,-9.534123688E0,1.407266880E1
1.155674863E1,-4.745282135E0,-8.921447754E0,-1.202988373E1,1.571076176E1
1.156668462E1,-5.537135468E0,-8.791218567E0,-7.823630676E0,1.300594441E1
1.157661962E1,-5.941594391E0,-8.757089539E0,-2.346071320E0,1.083942857E1
1.158655562E1,-5.777236176E0,-8.477770386E0,1.885778503E0,1.043097355E1
1.159649163E1,-5.747897186E0,-8.535699921E0,3.330574036E0,1.081615544E1
1.160642787E1,-5.482499084E0,-8.508905640E0,3.128943329E0,1.059478918E1
1.161636287E1,-4.959786072E0,-8.173303528E0,2.725532227E0,9.941372861E0
1.162629887E1,-4.459975433E0,-7.938292236E0,2.376607819E0,9.410426623E0
1.163623487E1,-3.955674133E0,-7.982749786E0,1.992207184E0,9.129104089E0
1.164616987E1,-3.560346222E0,-8.203690338E0,1.428180084E0,9.056285041E0
1.165610587E1,-3.223696289E0,-8.302484894E0,3.218307495E-1,8.912185378E0
1.166604187E1,-2.938389587E0,-8.206534424E0,-1.029858398E0,8.777354324E0
1.167597688E1,-3.008294220E0,-8.251291351E0,-1.675615540E0,8.940991585E0
1.168591287E1,-3.219804382E0,-8.524622955E0,-1.325044556E0,9.208261501E0
1.169584887E1,-3.433559875E0,-8.831933899E0,-4.519102478E-1,9.486654452E0
1.170578387E1,-3.627107391E0,-9.007967834E0,3.598516846E-1,9.717452638E0
1.171571988E1,-3.578608246E0,-9.066346436E0,8.078700256E-1,9.780476913E0
1.172565587E1,-3.271297302E0,-9.013206940E0,8.092172241E-1,9.622583743E0
1.173559187E1,-2.857407990E0,-8.928183746E0,3.888912964E-1,9.382349485E0
1.174552687E1,-2.539169769E0,-8.766370239E0,-2.270777893E-1,9.129523241E0
1.175546288E1,-2.353855133E0,-8.523575134E0,-6.833290100E-1,8.868985601E0
1.176539887E1,-2.556383972E0,-8.478369141E0,-7.827223206E-1,8.889909816E0
1.177533387E1,-2.988086243E0,-8.585995331E0,-6.078858948E-1,9.111393992E0
1.178526987E1,-3.581602020E0,-8.633746033E0,-2.938389587E-1,9.351779773E0
1.179520588E1,-4.144132233E0,-8.674161987E0,-7.080276489E-2,9.613528550E0
1.180514087E1,-4.546495514E0,-8.713081055E0,3.966751099E-2,9.828019965E0
1.181507687E1,-4.669839020E0,-8.673862610E0,2.859054565E-2,9.851096714E0
1.182501287E1,-4.743186493E0,-8.721164246E0,-7.963439941E-2,9.927883236E0
1.183494788E1,-4.896617432E0,-8.931776276E0,-2.507286072E-1,1.018903109E1
1.184488387E1,-5.023254089E0,-9.227561188E0,-4.074526978E-1,1.051413262E1
1.185481987E1,-5.063220978E0,-9.347312164E0,-4.379891968E-1,1.063956230E1
1.186475587E1,-4.938979340E0,-9.281598816E0,-4.200265503E-1,1.052226286E1
1.187469088E1,-4.793631592E0,-9.160350952E0,-4.454736328E-1,1.034839988E1
1.188462687E1,-4.805307312E0,-9.091793518E0,-3.749702454E-1,1.029039797E1
1.189456287E1,-5.060077515E0,-9.103319550E0,-2.462379456E-1,1.041803457E1
1.190449787E1,-5.294939117E0,-9.232650604E0,-1.597178650E-1,1.064442235E1
1.191443388E1,-5.568420410E0,-9.375603333E0,-1.113684082E-1,1.090512020E1
1.192436987E1,-5.884263611E0,-9.577683105E0,-2.415975952E-1,1.124343992E1
1.193430487E1,-6.168522491E0,-9.743837585E0,-5.423222351E-1,1.154500559E1
1.194424087E1,-6.367009735E0,-1.000369720E1,-9.250762939E-1,1.189405469E1
1.195417688E1,-7.223977661E0,-1.089659042E1,-1.382674713E0,1.314660890E1
1.196411287E1,-7.000642090E0,-1.125030487E1,-1.947749634E0,1.339298615E1
1.197404787E1,-6.565496979E0,-1.167751648E1,-2.327360229E0,1.359730662E1
1.198398387E1,-7.000791779E0,-1.212463669E1,-1.870809631E0,1.412507802E1
1.199391988E1,-6.913074188E0,-1.174263107E1,-9.737251282E-1,1.366119028E1
1.200385487E1,-6.735543365E0,-1.108250381E1,-2.288740540E-1,1.297080640E1
1.201379087E1,-6.810387726E0,-1.060933777E1,3.439846802E-1,1.261181011E1
1.202372687E1,-7.701634369E0,-1.068717590E1,7.711962891E-1,1.319566764E1
1.203366188E1,-6.985373840E0,-1.016715729E1,1.005010071E0,1.237645265E1
1.204359787E1,-5.112169189E0,-9.607321472E0,6.337820435E-1,1.090121917E1
1.205353387E1,-2.837948456E0,-9.151669006E0,-3.098556519E-2,9.581646891E0
1.206346887E1,-2.177671509E0,-9.624535675E0,-4.376898193E-1,9.877525628E0
1.207340488E1,-1.340612183E0,-9.740544434E0,-5.646258545E-1,9.848565847E0
1.208334087E1,-6.369255066E-1,-9.569001160E0,-2.329156494E-1,9.593003023E0
1.209327687E1,-4.634362793E-1,-9.734856262E0,-5.149291992E-2,9.746017194E0
1.210321187E1,-4.116439819E-1,-1.012075378E1,-1.514849854E-1,1.013025447E1
1.211314788E1,-6.191125488E-1,-1.081785416E1,-5.113366699E-1,1.084761421E1
1.212308387E1,-1.517244873E0,-1.174113419E1,-1.259480896E0,1.190556828E1
1.213301887E1,-2.149530029E0,-1.247670456E1,-1.197958832E0,1.271706497E1
1.214295487E1,-2.157313843E0,-1.263806900E1,-4.516108704E-1,1.282882471E1
1.215289088E1,-2.091001740E0,-1.270348297E1,-1.203497314E-1,1.287498551E1
1.216282587E1,-2.103126526E0,-1.237162308E1,1.311273193E-1,1.254979654E1
1.217276187E1,-2.529589691E0,-1.188019501E1,1.920506287E-1,1.214803444E1
1.218269787E1,-3.279979248E0,-1.114492401E1,-9.086105347E-2,1.161791078E1
1.219263388E1,-4.058210907E0,-1.052371582E1,-1.059945831E0,1.132877556E1
1.220256887E1,-4.542453918E0,-1.040755737E1,-2.125579834E0,1.155288828E1
1.221250487E1,-4.803211670E0,-1.045934967E1,-1.788630524E0,1.164766230E1
1.222244087E1,-4.878654785E0,-1.010488678E1,4.592449951E-1,1.123035686E1
1.223237587E1,-4.882696381E0,-9.409732361E0,3.227288818E-1,1.060603323E1
1.224231187E1,-4.991969147E0,-8.603059845E0,-4.775070190E-2,9.946591114E0
1.225224787E1,-5.236710205E0,-7.789501648E0,-4.541555786E-1,9.397112694E0
1.226218287E1,-5.382207642E0,-7.434589691E0,-1.372495880E0,9.280357101E0
1.227211888E1,-5.276377716E0,-7.422315216E0,-2.221380615E0,9.373657600E0
1.228205487E1,-5.076243896E0,-7.595804443E0,-2.489772491E0,9.469079380E0
1.229199087E1,-4.746030579E0,-7.832462311E0,-1.994302826E0,9.372807256E0
1.230192587E1,-3.913761292E0,-8.058791656E0,-1.276545410E0,9.049376696E0
1.231186188E1,-2.668500824E0,-8.009394379E0,-8.032296753E-1,8.480358063E0
1.232179787E1,-1.468146973E0,-7.581733704E0,-8.018824768E-1,7.764094087E0
1.233173287E1,-6.256988525E-1,-7.008126526E0,-9.487271118E-1,7.099677429E0
1.234166887E1,5.224136353E-2,-6.504124603E0,-1.190025330E0,6.612301135E0
1.235160488E1,5.339396667E-1,-6.199208679E0,-1.359472961E0,6.368943912E0
1.236153987E1,6.962022400E-1,-6.027366028E0,-1.417851562E0,6.230902169E0
1.237147587E1,8.422984314E-1,-5.792504425E0,-1.646875305E0,6.080688483E0
1.238141187E1,9.425898743E-1,-5.491779785E0,-2.049388275E0,5.937012143E0
1.239134687E1,8.330177307E-1,-5.269791412E0,-2.291584625E0,5.806546320E0
1.240128287E1,4.716691589E-1,-5.187312927E0,-2.497556305E0,5.776545222E0
1.241121887E1,-4.984634399E-2,-5.191504211E0,-2.747536469E0,5.873938822E0
1.242115487E1,-6.183641052E-1,-5.252128143E0,-2.973716125E0,6.067141979E0
1.243108987E1,-1.046773224E0,-5.304369507E0,-3.235821075E0,6.301000562E0
1.244102587E1,-1.311871948E0,-5.301375732E0,-3.524121552E0,6.499617325E0
1.245096187E1,-1.382075958E0,-5.322182465E0,-3.645818481E0,6.597556558E0
1.246089687E1,-1.526226196E0,-5.405708771E0,-3.812422028E0,6.788638702E0
1.247083287E1,-1.929786987E0,-5.613476715E0,-4.062701569E0,7.193103828E0
1.248076887E1,-2.504891052E0,-6.036047974E0,-4.381837921E0,7.868218216E0
1.249070487E1,-3.238964539E0,-6.600524139E0,-4.824168091E0,8.793770975E0
1.250063987E1,-3.909570007E0,-7.185507660E0,-5.450166321E0,9.829576334E0
1.251057587E1,-4.330943756E0,-7.866591339E0,-6.256090393E0,1.094435928E1
1.252051187E1,-4.871918793E0,-8.634494476E0,-6.905290375E0,1.208193373E1
1.253044687E1,-5.656886444E0,-9.167536011E0,-7.356601868E0,1.304467983E1
1.254038287E1,-6.418951721E0,-9.286538544E0,-7.805967407E0,1.372500880E1
1.255031888E1,-7.102729797E0,-8.969647522E0,-8.302035828E0,1.413602300E1
1.256025387E1,-7.554490356E0,-8.619226227E0,-8.396040344E0,1.420756414E1
1.257018987E1,-7.511380005E0,-8.482859802E0,-8.041577454E0,1.389412494E1
1.258012587E1,-6.702611847E0,-8.375083923E0,-7.755671997E0,1.323697414E1
1.259006188E1,-5.430108032E0,-7.817044373E0,-7.734565887E0,1.226441052E1
1.259999687E1,-4.287833405E0,-7.096442871E0,-7.779472504E0,1.136948588E1
1.260993287E1,-3.371139679E0,-6.909930725E0,-7.711962891E0,1.088972438E1
1.261986887E1,-2.734663239E0,-7.355404358E0,-7.392527161E0,1.078099319E1
1.262980387E1,-2.644850006E0,-8.297694855E0,-6.778054962E0,1.103580539E1
1.263973987E1,-2.615511017E0,-9.286688232E0,-5.839955750E0,1.127779054E1
1.264967587E1,-2.428400116E0,-1.045366150E1,-4.601880341E0,1.167704879E1
1.265961087E1,-2.393822021E0,-1.280721725E1,-2.772833862E0,1.332080348E1
1.266954687E1,-2.568359070E0,-1.616204086E1,-8.746311951E-1,1.638819737E1
1.267948287E1,-2.746039581E0,-1.959350510E1,6.215075684E-1,1.979475807E1
1.268941887E1,-2.433040466E0,-2.100776413E1,3.091072083E-1,2.115044649E1
1.269935387E1,-2.688259735E0,-2.000904099E1,-3.420686646E0,2.047656120E1
1.270928987E1,-3.671714630E0,-1.540790909E1,-6.360423431E0,1.706868879E1
1.271922587E1,-3.655099182E0,-9.551487579E0,-4.227359161E0,1.106622024E1
1.272916087E1,-2.898422699E0,-4.782704315E0,-2.274370422E0,6.037207593E0
1.273909687E1,-1.410367126E0,-2.162403259E0,-1.520837402E-1,2.586165647E0
1.274903287E1,1.667532349E-1,-2.197131042E0,2.617307281E0,3.421328523E0
1.275896887E1,5.995033264E-1,-3.667074280E0,4.473896484E0,5.815719024E0
1.276890387E1,-2.574645996E-1,-5.216352539E0,4.013154602E0,6.586503753E0
1.277883987E1,-1.110540619E0,-6.595584412E0,2.959346008E0,7.313874691E0
1.278877588E1,-1.658850403E0,-7.706424408E0,2.005679169E0,8.134095570E0
1.279871087E1,-2.166145477E0,-8.669521637E0,1.643282776E0,9.085877499E0
1.280864687E1,-2.888243866E0,-9.671088867E0,1.838776245E0,1.025928899E1
1.281858287E1,-3.615132294E0,-1.038660095E1,2.097887421E0,1.119606147E1
1.282851787E1,-4.216282196E0,-1.066262695E1,2.412982178E0,1.171712986E1
1.283845387E1,-4.731810150E0,-1.063747925E1,2.856210480E0,1.198765742E1
1.284838987E1,-4.568350067E0,-1.065214874E1,2.815046082E0,1.192738780E1
1.285832587E1,-4.376299438E0,-1.067445236E1,2.634371796E0,1.183367419E1
1.286826087E1,-4.155059509E0,-1.039573196E1,2.259401550E0,1.142106203E1
1.287819687E1,-3.751199341E0,-9.910890198E0,1.858235779E0,1.075873046E1
1.288813287E1,-3.272943878E0,-9.723330231E0,1.307830353E0,1.034242392E1
1.289806788E1,-2.792742462E0,-9.526788940E0,7.186555481E-1,9.953671874E0
1.290800387E1,-2.105970612E0,-9.236991577E0,-2.201771393E0,9.726506201E0
1.291793987E1,-9.728269958E-1,-8.614885254E0,-1.253897507E1,1.524429520E1
1.292787487E1,-1.578766937E0,-8.329428864E0,-1.318682785E1,1.567687210E1
1.293781087E1,-3.144510956E0,-8.799601135E0,-7.543563080E0,1.200942435E1
1.294774687E1,-4.652774506E0,-9.083560638E0,-1.464105377E0,1.031033409E1
1.295768287E1,-5.679339752E0,-9.009614410E0,2.464026031E0,1.093158159E1
1.296761787E1,-6.108347626E0,-8.979676666E0,3.510499878E0,1.141359335E1
1.297755387E1,-5.740562439E0,-8.518485718E0,3.553460541E0,1.086948655E1
1.298748987E1,-4.840633850E0,-7.930508423E0,3.184777222E0,9.821787305E0
1.299742487E1,-4.322411499E0,-7.605833588E0,2.790048065E0,9.182391515E0
1.300736087E1,-4.161047058E0,-7.600744171E0,2.373015289E0,8.984254345E0
1.301729687E1,-3.934867401E0,-7.742798767E0,1.872755585E0,8.884893229E0
1.302723187E1,-3.631448364E0,-7.901917877E0,1.104253693E0,8.766247748E0
1.303716787E1,-3.197949829E0,-8.202941895E0,-6.999444580E-1,8.832047389E0
1.304710387E1,-2.754272461E0,-8.544980621E0,-2.842738495E0,9.417211517E0
1.305703987E1,-2.740052032E0,-8.750054169E0,-3.338507538E0,9.757918102E0
1.306697487E1,-3.031495972E0,-9.057664490E0,-2.081571350E0,9.775693997E0
1.307691087E1,-3.492387543E0,-9.400451660E0,-6.116281128E-1,1.004685777E1
1.308684687E1,-3.710334320E0,-9.498946838E0,3.195854187E-1,1.020287737E1
1.309678188E1,-3.271746368E0,-9.283395081E0,6.486012268E-1,9.864402266E0
1.310671787E1,-2.673739929E0,-8.857680359E0,4.186793518E-1,9.261893918E0
1.311665387E1,-2.292632446E0,-8.526718597E0,-1.085243225E-1,8.830224861E0
1.312658987E1,-2.299817505E0,-8.446186066E0,-5.902226257E-1,8.773572953E0
1.313652488E1,-2.566113739E0,-8.539442139E0,-8.054750061E-1,8.952977256E0
1.314646087E1,-3.088078308E0,-8.815019073E0,-7.375163269E-1,9.369349990E0
1.315639687E1,-3.709885254E0,-9.120982819E0,-6.625222778E-1,9.868865788E0
1.316633187E1,-4.256698151E0,-9.239386597E0,-8.165519714E-1,1.020551326E1
1.317626787E1,-4.584516449E0,-9.214388580E0,-1.048120422E0,1.034511017E1
1.318620387E1,-4.737348633E0,-9.172924805E0,-1.232985992E0,1.039736871E1
1.319613887E1,-4.986430664E0,-9.156608734E0,-1.308129730E0,1.050805299E1
1.320607487E1,-5.091961212E0,-9.167985077E0,-1.196461945E0,1.055516653E1
1.321601087E1,-5.150639191E0,-9.219328308E0,-1.035696259E0,1.061120942E1
1.322594687E1,-5.109025726E0,-9.248367920E0,-1.035097504E0,1.061630255E1
1.323588187E1,-5.073100433E0,-9.350156250E0,-9.647438049E-1,1.068140911E1
1.324581787E1,-5.198389893E0,-9.489666138E0,-8.202941895E-1,1.085126276E1
1.325575387E1,-5.150489502E0,-9.482331390E0,-7.000941467E-1,1.081352313E1
1.326568887E1,-5.121449890E0,-9.365424500E0,-5.304968262E-1,1.068746237E1
1.327562487E1,-5.353916473E0,-9.533375244E0,-1.960922241E-1,1.093563520E1
1.328556087E1,-5.954916687E0,-1.000145187E1,-1.119671631E-1,1.164055879E1
1.329549687E1,-6.628665619E0,-1.067520081E1,-6.274951172E-1,1.258144945E1
1.330543187E1,-6.240822144E0,-1.095990875E1,-1.376986542E0,1.268714124E1
1.331536787E1,-6.314918060E0,-1.181103882E1,-1.769470367E0,1.350962077E1
1.332530387E1,-5.727090454E0,-1.188079376E1,-1.634900208E0,1.329006111E1
1.333523888E1,-5.445076904E0,-1.177211975E1,-1.092128906E0,1.301631328E1
1.334517487E1,-5.470823364E0,-1.163425644E1,-5.343887329E-2,1.285646479E1
1.335511087E1,-5.414241028E0,-1.120614670E1,9.586065674E-1,1.248241388E1
1.336504687E1,-5.577850800E0,-1.096170502E1,1.522034912E0,1.239306204E1
1.337498188E1,-5.212310944E0,-1.066172882E1,1.416204987E0,1.195183180E1
1.338491787E1,-5.356161804E0,-1.094134735E1,8.851094055E-1,1.221412992E1
1.339485387E1,-3.767066345E0,-1.087189178E1,2.992277527E-1,1.150992429E1
1.340478887E1,-2.036215668E0,-1.090856552E1,-3.429368591E-1,1.110227822E1
1.341472488E1,-5.203179932E-1,-1.083012863E1,-7.902067566E-1,1.087137727E1
1.342466087E1,-1.127156067E-1,-1.108744354E1,-1.015637970E0,1.113443441E1
1.343459587E1,-4.754113770E-1,-1.162871796E1,-1.108594666E0,1.169111113E1
1.344453187E1,-1.091829529E0,-1.230171844E1,-1.316811676E0,1.242007896E1
1.345446787E1,-1.448986816E0,-1.276545410E1,-1.574725342E0,1.294357528E1
1.346440387E1,-1.519041138E0,-1.278521301E1,-9.389973450E-1,1.290933282E1
1.347433887E1,-1.553170166E0,-1.215592163E1,-2.911445618E-1,1.225820270E1
1.348427487E1,-1.618733826E0,-1.155372391E1,-1.856140137E-2,1.166658390E1
1.349421087E1,-2.096091156E0,-1.073283096E1,2.800675964E-1,1.093918171E1
1.350414587E1,-2.766397247E0,-9.874366150E0,5.029541016E-1,1.026688967E1
1.351408187E1,-3.455863495E0,-9.183852081E0,3.385958862E-1,9.818389823E0
1.352401787E1,-4.164489899E0,-9.358089752E0,-3.023712158E-1,1.024735323E1
1.353395387E1,-4.371210022E0,-9.952353973E0,-6.854246521E-1,1.089158545E1
1.354388887E1,-4.135749664E0,-1.028136978E1,-4.760101318E-1,1.109223041E1
1.355382487E1,-3.894750824E0,-1.013706985E1,2.784210205E-2,1.085956005E1
1.356376087E1,-3.616928558E0,-9.700427856E0,5.059478760E-2,1.035292387E1
1.357369588E1,-3.544928284E0,-9.133706360E0,-4.183799744E-1,9.806434123E0
1.358363187E1,-3.494333496E0,-8.747808838E0,-1.119372253E0,9.486175219E0
1.359356787E1,-3.439547424E0,-8.556356964E0,-1.655856628E0,9.369289843E0
1.360350362E1,-3.520379333E0,-8.565338287E0,-1.902843018E0,9.454041579E0
1.361343863E1,-3.600762177E0,-8.512797546E0,-1.954485626E0,9.447392465E0
1.362337462E1,-3.633993073E0,-8.441396027E0,-2.092049561E0,9.425483748E0
1.363331062E1,-3.489842834E0,-8.353977814E0,-2.301913147E0,9.341667542E0
1.364324562E1,-3.200644226E0,-8.266260223E0,-1.958676910E0,9.078083321E0
1.365318163E1,-2.585872650E0,-8.138426056E0,-1.299447784E0,8.637666385E0
1.366311762E1,-1.427581329E0,-7.808661804E0,-9.400451660E-1,7.993551935E0
1.367305362E1,-4.185296631E-1,-7.386988678E0,-9.213340759E-1,7.455979164E0
1.368298862E1,2.185455322E-1,-6.978637848E0,-8.795709229E-1,7.037243308E0
1.369292463E1,5.635780334E-1,-6.664890289E0,-7.879614258E-1,6.734928803E0
1.370286062E1,7.494914246E-1,-6.406377869E0,-8.343649292E-1,6.503812699E0
1.371279562E1,8.339158630E-1,-6.096821594E0,-1.079555054E0,6.247566593E0
1.372273162E1,8.640032959E-1,-5.840853882E0,-1.615889740E0,6.121533747E0
1.373266763E1,7.388635254E-1,-5.658533020E0,-2.228415985E0,6.126234818E0
1.374260362E1,5.231620789E-1,-5.413342896E0,-2.750081177E0,6.094335595E0
1.375253862E1,2.389031982E-1,-5.134921875E0,-3.026855621E0,5.965429771E0
1.376247462E1,-4.101470947E-2,-4.982389069E0,-3.190615082E0,5.916579049E0
1.377241062E1,-4.308041382E-1,-4.962630157E0,-3.322640533E0,5.987756708E0
1.378234562E1,-7.664062500E-1,-5.076992340E0,-3.354973297E0,6.133439132E0
1.379228162E1,-9.611512756E-1,-5.262905731E0,-3.461252289E0,6.371989950E0
1.380221762E1,-1.195563812E0,-5.497917023E0,-3.795058136E0,6.786673019E0
1.381215362E1,-1.694176941E0,-5.794899445E0,-4.197271729E0,7.353107169E0
1.382208862E1,-2.287842407E0,-6.265371094E0,-4.693938904E0,8.156111834E0
1.383202462E1,-2.653531952E0,-6.849157104E0,-5.367837524E0,9.097574652E0
1.384196062E1,-2.742447052E0,-7.646698608E0,-6.142177277E0,1.018427008E1
1.385189563E1,-3.171454926E0,-8.551716614E0,-6.965465240E0,1.147639706E1
1.386183162E1,-4.050127716E0,-9.178612976E0,-7.742499390E0,1.267267799E1
1.387176762E1,-5.092110901E0,-9.406139832E0,-8.411158905E0,1.360708103E1
1.388170362E1,-6.376589813E0,-9.455537109E0,-8.857380981E0,1.444026584E1
1.389163863E1,-7.441475372E0,-9.585466919E0,-9.046288147E0,1.513578743E1
1.390157462E1,-8.042475586E0,-9.702673187E0,-8.932225342E0,1.544693918E1
1.391151062E1,-7.923772430E0,-9.487271118E0,-8.586893463E0,1.505088775E1
1.392144562E1,-6.866670685E0,-8.679550781E0,-8.296497345E0,1.383176186E1
1.393138163E1,-5.391039276E0,-7.349716187E0,-8.002059631E0,1.212908038E1
1.394131762E1,-4.058959351E0,-5.924829254E0,-7.711962891E0,1.053817462E1
1.395125362E1,-2.899021454E0,-5.334007874E0,-7.383695526E0,9.559023225E0
1.396118862E1,-2.273771667E0,-6.062093811E0,-6.858587494E0,9.431820682E0
1.397112463E1,-2.124232635E0,-7.348069611E0,-5.804928589E0,9.602275106E0
1.398106062E1,-1.914668427E0,-8.503516846E0,-4.255201263E0,9.699612968E0
1.399099562E1,-1.540296936E0,-1.014350647E1,-2.611469421E0,1.058692640E1
1.400093162E1,-1.328786774E0,-1.318488190E1,-7.544311523E-1,1.327312892E1
1.401086762E1,-1.629810791E0,-1.750639526E1,9.226812744E-1,1.760629146E1
1.402080362E1,-1.351988525E0,-2.099668716E1,1.817670135E0,2.111853853E1
1.403073862E1,-3.249742126E-1,-2.315534821E1,8.436456299E-1,2.317299067E1
1.404067462E1,-2.918930054E-2,-2.329246307E1,-3.571722565E0,2.356473828E1
1.405061062E1,-1.730850677E0,-1.760474075E1,-7.841892700E0,1.934988429E1
1.406054562E1,-2.373164978E0,-9.878557434E0,-5.571414185E0,1.158699551E1
1.407048162E1,-2.155667267E0,-4.169729004E0,-3.746708679E0,6.005944327E0
1.408041762E1,-8.864566040E-1,-1.221459961E0,-1.325792999E0,2.008854605E0
1.409035362E1,1.472937012E-1,-1.237626343E0,2.773432617E0,3.040615543E0
1.410028862E1,4.486170959E-1,-3.059787140E0,5.351970520E0,6.181192691E0
1.411022462E1,-2.342628479E-1,-4.518653412E0,5.176086273E0,6.874952861E0
1.412016062E1,-1.141226807E0,-5.780379639E0,3.934418335E0,7.084831334E0
1.413009563E1,-1.799857178E0,-7.357799377E0,2.826123047E0,8.084780085E0
1.414003162E1,-2.536325684E0,-8.977431335E0,2.172582092E0,9.578482881E0
1.414996762E1,-3.371439056E0,-1.053404434E1,2.214794312E0,1.127998251E1
1.415990362E1,-4.127367096E0,-1.182615738E1,2.624492340E0,1.279769970E1
1.416983863E1,-4.576882324E0,-1.238958572E1,2.860850830E0,1.351422042E1
1.417977462E1,-4.691244507E0,-1.200967575E1,2.898871765E0,1.321527692E1
1.418971062E1,-4.483027496E0,-1.104178848E1,2.687660980E0,1.221647044E1
1.419964562E1,-3.798800354E0,-9.904154205E0,2.199226685E0,1.083327064E1
1.420958163E1,-3.265010376E0,-9.141190796E0,1.720222778E0,9.858033695E0
1.421951762E1,-3.111729126E0,-8.950337677E0,1.286873932E0,9.562815862E0
1.422945362E1,-3.160976715E0,-9.114845581E0,9.310638428E-1,9.692216653E0
1.423938862E1,-3.202141113E0,-9.301956482E0,6.021977234E-1,9.856101876E0
1.424932463E1,-2.430495758E0,-9.349707184E0,-3.665876770E0,1.033261760E1
1.425926062E1,-8.485853577E-1,-9.005123749E0,-1.337992630E1,1.615038014E1
1.426919562E1,-1.127305756E0,-8.802744598E0,-1.225022552E1,1.512703395E1
1.427913162E1,-2.508483582E0,-9.193432159E0,-6.133046265E0,1.133251699E1
1.428906762E1,-4.175267487E0,-9.424401855E0,-3.222798157E-1,1.031290809E1
1.429900362E1,-5.366490326E0,-9.272168427E0,2.715054016E0,1.105187061E1
1.430893862E1,-5.810018005E0,-9.017996979E0,3.294948120E0,1.122217723E1
1.431887462E1,-5.459447021E0,-8.529263306E0,3.029999084E0,1.057046776E1
1.432881062E1,-4.638554077E0,-8.024063873E0,2.632126465E0,9.634826137E0
1.433874562E1,-4.049379272E0,-7.828420715E0,2.207609253E0,9.085988224E0
1.434868162E1,-3.789669342E0,-7.958799591E0,1.864672394E0,9.010054816E0
1.435861762E1,-3.510799255E0,-8.133785706E0,1.203497314E0,8.940502620E0
1.436855362E1,-3.098107452E0,-8.176596680E0,-1.052311707E-1,8.744488358E0
1.437848862E1,-2.597847748E0,-8.175698547E0,-1.940564575E0,8.795262960E0
1.438842462E1,-2.387235718E0,-8.340056763E0,-2.887196045E0,9.142830097E0
1.439836062E1,-2.508184204E0,-8.523126068E0,-2.233655090E0,9.160997819E0
1.440829563E1,-2.850821686E0,-8.805888062E0,-9.948312378E-1,9.309164196E0
1.441823162E1,-3.054997101E0,-8.993897095E0,-1.305285645E-1,9.499485773E0
1.442816762E1,-2.962788849E0,-8.879534912E0,3.715274048E-1,9.368153000E0
1.443810362E1,-2.768792267E0,-8.705746307E0,6.689588928E-1,9.159898219E0
1.444803863E1,-2.525548096E0,-8.652008057E0,7.653584290E-1,9.045518787E0
1.445797462E1,-2.259102173E0,-8.787476349E0,5.038522339E-1,9.087197053E0
1.446791062E1,-2.139201508E0,-9.115144958E0,-1.028361511E-1,9.363366167E0
1.447784662E1,-2.189796295E0,-9.478439484E0,-9.151968384E-1,9.771059723E0
1.448778163E1,-2.411335602E0,-9.688452759E0,-1.645677795E0,1.011874062E1
1.449771762E1,-2.809507599E0,-9.643695831E0,-1.922003174E0,1.022684206E1
1.450765362E1,-3.404370575E0,-9.454040222E0,-1.528172150E0,1.016385388E1
1.451758862E1,-4.004622345E0,-9.261839905E0,-8.006849670E-1,1.012224160E1
1.452752462E1,-4.436174927E0,-9.137448578E0,-1.627116394E-1,1.015869527E1
1.453746062E1,-4.680915985E0,-9.123228149E0,5.448669434E-2,1.025413259E1
1.454739662E1,-4.731510773E0,-9.119186554E0,-1.332229614E-1,1.027445891E1
1.455733162E1,-4.907395020E0,-9.176966400E0,-5.049000549E-1,1.041893287E1
1.456726762E1,-4.884342957E0,-9.267079010E0,-8.988807678E-1,1.051396909E1
1.457720362E1,-4.800068207E0,-9.579629059E0,-1.146016846E0,1.077605226E1
1.458713862E1,-4.898563385E0,-9.894574127E0,-1.272653503E0,1.111387274E1
1.459707462E1,-4.730462952E0,-9.946815491E0,-1.129102020E0,1.107209508E1
1.460701092E1,-4.543651428E0,-9.940678253E0,-7.617658997E-1,1.095637439E1
1.461694692E1,-4.637356567E0,-1.003034180E1,-6.899153137E-1,1.107198337E1
1.462688192E1,-4.998256073E0,-1.019125717E1,-1.145268402E0,1.140859002E1
1.463681792E1,-4.525539093E0,-1.003573059E1,-1.872605896E0,1.116705178E1
1.464675392E1,-5.079537048E0,-1.090302704E1,-2.141895905E0,1.221742253E1
1.465668892E1,-5.348827057E0,-1.153321655E1,-1.895957336E0,1.285378112E1
1.466662492E1,-4.712649994E0,-1.150747009E1,-1.619482269E0,1.254008217E1
1.467656092E1,-4.556075592E0,-1.110585526E1,-1.404978333E0,1.208601712E1
1.468649692E1,-4.914280701E0,-1.071756271E1,-7.403604126E-1,1.181373941E1
1.469643192E1,-5.392236786E0,-1.052895493E1,4.046086121E-1,1.183633463E1
1.470636792E1,-5.351970520E0,-1.009470795E1,1.088686066E0,1.147745417E1
1.471630392E1,-6.104006653E0,-1.039288788E1,1.180744629E0,1.211053977E1
1.472623992E1,-6.027066650E0,-1.068762497E1,1.029708710E0,1.231304836E1
1.473617492E1,-5.662424927E0,-1.106843307E1,1.026864624E0,1.247508388E1
1.474611092E1,-3.910468140E0,-1.109268265E1,7.210505676E-1,1.178385689E1
1.475604692E1,-1.595532074E0,-1.110211304E1,-2.125579834E-1,1.121819136E1
1.476598192E1,-6.303392029E-1,-1.164623154E1,-8.860075378E-1,1.169688189E1
1.477591792E1,-6.415658569E-1,-1.232013016E1,-9.255253601E-1,1.237149187E1
1.478585392E1,-9.665400696E-1,-1.308743454E1,-8.035290527E-1,1.314765384E1
1.479578992E1,-1.015637970E0,-1.387779099E1,-6.984475708E-1,1.393242377E1
1.480572492E1,-4.911286926E-1,-1.428344742E1,-1.791773987E-1,1.429301165E1
1.481566092E1,-1.472937012E-1,-1.381312546E1,-2.245330811E-3,1.381391094E1
1.482559692E1,-3.608995056E-1,-1.287861877E1,-3.350033569E-1,1.288802922E1
1.483553192E1,-6.816824341E-1,-1.180190781E1,-7.617658997E-1,1.184609666E1
1.484546792E1,-1.167721710E0,-1.068283493E1,-7.460485840E-1,1.077233144E1
1.485540392E1,-2.123184814E0,-9.614955597E0,-6.342311096E-1,9.866992145E0
1.486533992E1,-3.079995117E0,-9.294322357E0,-8.994795227E-1,9.832591795E0
1.487527492E1,-3.538192291E0,-9.576485596E0,-1.181343384E0,1.027732714E1
1.488521092E1,-3.866759033E0,-9.745933228E0,-1.152303772E0,1.054812040E1
1.489514692E1,-3.822002106E0,-9.877509613E0,-2.817141724E-1,1.059491666E1
1.490508292E1,-3.309467926E0,-9.643396454E0,1.442849579E0,1.029706211E1
1.491501792E1,-3.258274384E0,-8.995992737E0,9.613009644E-1,9.616045800E0
1.492495392E1,-3.051404572E0,-8.628057861E0,4.939727783E-2,9.151879174E0
1.493488992E1,-2.627336426E0,-8.430019684E0,-8.396040344E-1,8.869783735E0
1.494482492E1,-2.057621155E0,-8.375832367E0,-1.266216888E0,8.717320567E0
1.495476092E1,-1.742676086E0,-8.270002441E0,-1.391805725E0,8.565452907E0
1.496469692E1,-1.863774261E0,-8.322243805E0,-1.481469269E0,8.656104646E0
1.497463292E1,-1.910028076E0,-8.358468475E0,-1.594484253E0,8.720927848E0
1.498456792E1,-2.012714539E0,-8.431815948E0,-1.737886047E0,8.841198330E0
1.499450392E1,-1.963317261E0,-8.434959412E0,-2.011517029E0,8.890970459E0
1.500443992E1,-1.853445740E0,-8.363258514E0,-2.021995239E0,8.801580474E0
1.501437492E1,-1.469943237E0,-8.169710999E0,-1.431024170E0,8.423345006E0
1.502431092E1,-6.601272583E-1,-7.813451843E0,-8.517288208E-1,7.887410202E0
1.503424692E1,1.691482544E-2,-7.397616577E0,-5.303471375E-1,7.416622224E0
1.504418292E1,4.276606750E-1,-6.907386017E0,-5.267546082E-1,6.940630062E0
1.505411792E1,7.438032532E-1,-6.375691681E0,-7.937992859E-1,6.467828461E0
1.506405392E1,9.692344666E-1,-5.923182678E0,-1.190175018E0,6.118825464E0
1.507398992E1,1.034648438E0,-5.627397766E0,-1.612297211E0,5.944544163E0
1.508392592E1,8.855584717E-1,-5.430557098E0,-2.052082672E0,5.872495849E0
1.509386092E1,6.072871399E-1,-5.238506470E0,-2.573298798E0,5.867931016E0
1.510379692E1,2.495310974E-1,-5.003046112E0,-3.084934845E0,5.882988965E0
1.511373292E1,-3.847000122E-2,-4.819078674E0,-3.391946411E0,5.893241864E0
1.512366792E1,-1.929487610E-1,-4.799319763E0,-3.500770111E0,5.943575589E0
1.513360392E1,-3.975732422E-1,-4.976551208E0,-3.478167114E0,6.084551987E0
1.514353992E1,-7.945477295E-1,-5.379513245E0,-3.418890381E0,6.423338718E0
1.515347592E1,-1.393901367E0,-5.869294739E0,-3.494932251E0,6.971809893E0
1.516341092E1,-2.066752167E0,-6.402935028E0,-3.821403351E0,7.737710583E0
1.517334692E1,-2.602637787E0,-6.976093140E0,-4.482428741E0,8.690901355E0
1.518328292E1,-2.934347992E0,-7.647746429E0,-5.301375732E0,9.757202890E0
1.519321892E1,-3.190764771E0,-8.659642181E0,-6.131100311E0,1.107974610E1
1.520315392E1,-3.787424011E0,-9.882000275E0,-6.919810181E0,1.264445661E1
1.521308992E1,-4.703518982E0,-1.091350525E1,-7.883356476E0,1.426096059E1
1.522302592E1,-5.757626953E0,-1.141466309E1,-9.073980560E0,1.567743361E1
1.523296092E1,-6.699318695E0,-1.140104141E1,-9.822424164E0,1.647254178E1
1.524289692E1,-7.146289215E0,-1.103804626E1,-9.850116577E0,1.642962907E1
1.525283292E1,-6.709647217E0,-1.051189041E1,-9.698930969E0,1.579836915E1
1.526276892E1,-5.526357880E0,-9.892029419E0,-9.639654236E0,1.487668684E1
1.527270392E1,-4.380939789E0,-9.014853516E0,-9.132059784E0,1.355930431E1
1.528263992E1,-3.407064972E0,-8.137527924E0,-8.567882996E0,1.229780759E1
1.529257592E1,-2.378404083E0,-7.368427277E0,-7.991282043E0,1.112704432E1
1.530251192E1,-1.511257324E0,-7.092700653E0,-7.223827972E0,1.023591676E1
1.531244692E1,-9.277706909E-1,-7.423363037E0,-6.343059540E0,9.808235395E0
1.532238292E1,-5.441184998E-1,-8.218509521E0,-5.151537323E0,9.714849483E0
1.533231892E1,-3.129991150E-1,-9.763297119E0,-3.398981781E0,1.034277604E1
1.534225492E1,-2.911445618E-1,-1.244886246E1,-1.288819885E0,1.251878582E1
1.535218992E1,-5.927673340E-1,-1.576282104E1,3.769161987E-1,1.577846527E1
1.536212592E1,-8.571176147E-1,-1.889820099E1,1.371298370E0,1.896726418E1
1.537206192E1,-7.265890503E-1,-1.964200424E1,8.785231018E-1,1.967506201E1
1.538199692E1,-9.686357117E-1,-1.810574890E1,-1.836680603E0,1.822442850E1
1.539193292E1,-2.305355988E0,-1.359772339E1,-5.488636322E0,1.484378241E1
1.540186892E1,-3.016078033E0,-8.237969055E0,-5.423372040E0,1.031376872E1
1.541180492E1,-2.230361938E0,-4.561763763E0,-3.336411896E0,6.075841287E0
1.542173992E1,-7.746391296E-1,-2.941083984E0,-5.990542603E-1,3.099823671E0
1.543167592E1,3.670367432E-1,-3.065175934E0,2.356848907E0,3.883909918E0
1.544161192E1,7.026388550E-1,-3.916156311E0,3.700155487E0,5.433335278E0
1.545154792E1,1.698966980E-1,-4.983736267E0,3.445834351E0,6.061374963E0
1.546148292E1,-6.816824341E-1,-6.367758179E0,2.988535309E0,7.067133680E0
1.547141892E1,-1.310375061E0,-7.824229431E0,2.276765442E0,8.253442304E0
1.548135492E1,-1.967508545E0,-9.153016205E0,1.828298035E0,9.538944870E0
1.549128992E1,-2.779869232E0,-1.044947021E1,1.939067688E0,1.098540323E1
1.550122592E1,-3.676804047E0,-1.135523666E1,2.458188171E0,1.218617974E1
1.551116192E1,-4.546944580E0,-1.163126266E1,2.937042389E0,1.282915407E1
1.552109792E1,-4.960983582E0,-1.123339005E1,2.893932037E0,1.261646752E1
1.553103292E1,-4.922363892E0,-1.065364563E1,2.455044708E0,1.198987389E1
1.554096892E1,-4.663851471E0,-1.005923172E1,1.858535156E0,1.124250000E1
1.555090492E1,-4.112547913E0,-9.485774231E0,1.359622650E0,1.042792102E1
1.556084092E1,-3.618275757E0,-9.205107880E0,1.159788208E0,9.958465706E0
1.557077592E1,-3.433709564E0,-9.380543060E0,6.689588928E-1,1.001161603E1
1.558071192E1,-2.607128448E0,-9.541308746E0,-4.455933838E0,1.084845785E1
1.559064792E1,-9.964778137E-1,-9.421258392E0,-1.254720795E1,1.572213424E1
1.560058292E1,-5.754034424E-1,-9.273964691E0,-1.200802917E1,1.518322347E1
1.561051888E1,-1.185684357E0,-9.232051849E0,-6.662195892E0,1.144646159E1
1.562045487E1,-2.539020081E0,-9.293124847E0,-8.186476135E-1,9.668452633E0
1.563039087E1,-4.092190247E0,-9.388326874E0,2.565664673E0,1.055790404E1
1.564032587E1,-4.805756378E0,-9.378896484E0,3.271446991E0,1.103455296E1
1.565026187E1,-4.716392212E0,-9.028624878E0,3.028651886E0,1.062700122E1
1.566019787E1,-4.048331451E0,-8.487350464E0,2.530038757E0,9.737823245E0
1.567013387E1,-3.577560425E0,-8.155939636E0,2.230212250E0,9.181074916E0
1.568006887E1,-3.291654968E0,-8.282576294E0,1.966760101E0,9.127113881E0
1.569000487E1,-2.923720093E0,-8.424780579E0,1.319206696E0,9.014730905E0
1.569994087E1,-2.249522095E0,-8.271948395E0,2.384541321E-1,8.575683079E0
1.570987687E1,-1.416055298E0,-8.154592438E0,-1.332229614E0,8.383163256E0
1.571981187E1,-9.936337280E-1,-8.284671936E0,-2.444865875E0,8.694852858E0
1.572974787E1,-1.465602264E0,-8.599018250E0,-2.083816681E0,8.968466804E0
1.573968387E1,-2.306254120E0,-8.963360596E0,-9.159452820E-1,9.300515953E0
1.574961887E1,-3.036286011E0,-9.352102203E0,3.397933960E-2,9.832700695E0
1.575955487E1,-3.307821350E0,-9.484726410E0,6.176156616E-1,1.006395381E1
1.576949087E1,-3.097658386E0,-9.434431000E0,1.019080811E0,9.982109069E0
1.577942688E1,-2.708617401E0,-9.308991852E0,1.157692566E0,9.763922859E0
1.578936187E1,-2.278112640E0,-9.113797760E0,9.355545044E-1,9.440676302E0
1.579929787E1,-1.920057220E0,-9.001381531E0,3.082090759E-1,9.209043491E0
1.580923387E1,-1.679357758E0,-9.081914063E0,-6.337820435E-1,9.257596081E0
1.581916988E1,-1.730102234E0,-9.274114380E0,-1.654210052E0,9.578040623E0
1.582910487E1,-2.166744232E0,-9.454040222E0,-2.314786377E0,9.971554195E0
1.583904087E1,-2.874921570E0,-9.498048706E0,-2.253114624E0,1.017617948E1
1.584897687E1,-3.566633148E0,-9.542955322E0,-1.676513672E0,1.032470660E1
1.585891288E1,-4.025279388E0,-9.583221588E0,-1.102158051E0,1.045254814E1
1.586884787E1,-4.286785583E0,-9.714199219E0,-7.628137207E-1,1.064537843E1
1.587878387E1,-4.443210297E0,-9.835746460E0,-6.713539124E-1,1.081363686E1
1.588871987E1,-4.443958740E0,-9.830058289E0,-7.156617737E-1,1.081161353E1
1.589865487E1,-4.460125122E0,-9.748477936E0,-7.241940308E-1,1.074476594E1
1.590859087E1,-4.653373260E0,-9.647138672E0,-6.189628601E-1,1.072866638E1
1.591852687E1,-4.883444824E0,-9.581874390E0,-4.213737488E-1,1.076280196E1
1.592846287E1,-4.978796539E0,-9.468410339E0,-9.774673462E-2,1.069807290E1
1.593839787E1,-5.259762268E0,-9.455836487E0,2.457888794E-1,1.082304740E1
1.594833387E1,-5.247787170E0,-9.477092285E0,2.671943665E-1,1.083632508E1
1.595826987E1,-5.390590210E0,-9.784403229E0,-2.788700867E-1,1.117455940E1
1.596820587E1,-4.930596771E0,-1.019993912E1,-1.162632294E0,1.138864594E1
1.597814087E1,-5.161416779E0,-1.126123215E1,-1.852397919E0,1.252545211E1
1.598807687E1,-4.729115753E0,-1.191761719E1,-1.897753601E0,1.296131181E1
1.599801287E1,-4.189787292E0,-1.224019638E1,-1.362616425E0,1.300897569E1
1.600794887E1,-3.996090088E0,-1.220980957E1,-7.713459778E-1,1.287024321E1
1.601788387E1,-4.132905579E0,-1.207464066E1,-1.634600830E-1,1.276340764E1
1.602781987E1,-4.512067108E0,-1.193378357E1,5.276527405E-1,1.276919564E1
1.603775587E1,-4.365671539E0,-1.121363113E1,9.479786682E-1,1.207076115E1
1.604769087E1,-4.737648010E0,-1.115121094E1,1.173559570E0,1.217259447E1
1.605762688E1,-5.007985840E0,-1.109687393E1,1.023421783E0,1.221752534E1
1.606756287E1,-5.161117401E0,-1.125150238E1,5.547463989E-1,1.239117356E1
1.607749887E1,-3.626658325E0,-1.093760513E1,2.963836670E-1,1.152699874E1
1.608743387E1,-1.495989075E0,-1.028630951E1,3.406915283E-1,1.040010660E1
1.609736988E1,-3.212319946E-1,-1.014560211E1,2.448907471E-1,1.015363992E1
1.610730587E1,2.897973633E-1,-1.043450134E1,7.110214233E-2,1.043876699E1
1.611724187E1,4.819976807E-1,-1.122665405E1,-2.305206299E-1,1.123936042E1
1.612717687E1,5.923182678E-1,-1.228615082E1,-5.246589661E-1,1.231160468E1
1.613711288E1,4.966671753E-1,-1.321317307E1,-1.125659180E0,1.327033268E1
1.614704887E1,5.225633240E-1,-1.346210541E1,-1.078507233E0,1.351534433E1
1.615698487E1,3.344046021E-1,-1.288670197E1,-8.422984314E-1,1.291852858E1
1.616691987E1,-2.529739380E-1,-1.196851135E1,-7.406597900E-1,1.199407507E1
1.617685588E1,-7.698490906E-1,-1.108519821E1,-7.345225525E-1,1.113614881E1
1.618679187E1,-1.199455719E0,-1.034199371E1,-8.364605713E-1,1.044486449E1
1.619672787E1,-2.134112091E0,-9.752369843E0,-8.261320496E-1,1.001726740E1
1.620666287E1,-3.112178192E0,-9.971663818E0,-9.719288635E-1,1.049115714E1
1.621659888E1,-3.554059296E0,-1.033510803E1,-7.469467163E-1,1.095462117E1
1.622653487E1,-3.474275208E0,-1.031774414E1,6.840774536E-2,1.088719946E1
1.623646987E1,-3.492537231E0,-1.029319519E1,1.500479736E0,1.097265342E1
